Questions,Stair.thisTrialN,Stair.stepSize,Stair.intensity,Stair2.thisTrialN,Stair2.stepSize,Stair2.intensity,controlQ.thisRepN,controlQ.thisTrialN,controlQ.thisN,controlQ.thisIndex,Qs.thisRepN,Qs.thisTrialN,Qs.thisN,Qs.thisIndex,cueExoPos,targetXOri,targetXPos,CorrectAns,Stair.response,keyPress_2.rt,keyPress_2.rl,cueOri,Stair2.response,keyPress.rt,keyPress.rl,key_start.keys,key_start.rt,Quest_Ans.response,Quest_Ans.rt,Session,Participant,date,expName,psychopyVersion,frameRate,
,0,1,81,,,,,,,,,,,,-4.6,90,4.6,right,1,0.5546111,right,,,,,,,,,3,3,2019_Mar_31_1518,Flow_exo_post,3.0.5,59.43497546,
,1,1,80,,,,,,,,,,,,4.6,90,4.6,right,1,0.4510496,right,,,,,,,,,3,3,2019_Mar_31_1518,Flow_exo_post,3.0.5,59.43497546,
,2,1,79,,,,,,,,,,,,-4.6,90,-4.6,left,1,0.451564,left,,,,,,,,,3,3,2019_Mar_31_1518,Flow_exo_post,3.0.5,59.43497546,
,3,1,78,,,,,,,,,,,,4.6,90,-4.6,left,1,0.4859703,left,,,,,,,,,3,3,2019_Mar_31_1518,Flow_exo_post,3.0.5,59.43497546,
,4,1,77,,,,,,,,,,,,-4.6,0,-4.6,left,1,0.5829843,left,,,,,,,,,3,3,2019_Mar_31_1518,Flow_exo_post,3.0.5,59.43497546,
,5,1,76,,,,,,,,,,,,4.6,90,4.6,right,1,0.4012243,right,,,,,,,,,3,3,2019_Mar_31_1518,Flow_exo_post,3.0.5,59.43497546,
,6,1,75,,,,,,,,,,,,-4.6,0,-4.6,left,1,0.434913,left,,,,,,,,,3,3,2019_Mar_31_1518,Flow_exo_post,3.0.5,59.43497546,
,7,1,74,,,,,,,,,,,,-4.6,90,-4.6,left,1,0.468797,left,,,,,,,,,3,3,2019_Mar_31_1518,Flow_exo_post,3.0.5,59.43497546,
,8,1,73,,,,,,,,,,,,4.6,90,-4.6,left,1,0.8179045,left,,,,,,,,,3,3,2019_Mar_31_1518,Flow_exo_post,3.0.5,59.43497546,
,9,1,72,,,,,,,,,,,,4.6,0,-4.6,left,1,0.6685019,left,,,,,,,,,3,3,2019_Mar_31_1518,Flow_exo_post,3.0.5,59.43497546,
,10,1,71,,,,,,,,,,,,-4.6,90,4.6,right,1,0.7013948,right,,,,,,,,,3,3,2019_Mar_31_1518,Flow_exo_post,3.0.5,59.43497546,
,11,1,70,,,,,,,,,,,,-4.6,90,4.6,right,1,0.6513848,right,,,,,,,,,3,3,2019_Mar_31_1518,Flow_exo_post,3.0.5,59.43497546,
,12,1,69,,,,,,,,,,,,-4.6,0,-4.6,left,1,0.6010538,left,,,,,,,,,3,3,2019_Mar_31_1518,Flow_exo_post,3.0.5,59.43497546,
,13,1,68,,,,,,,,,,,,-4.6,90,-4.6,left,1,0.6191129,left,,,,,,,,,3,3,2019_Mar_31_1518,Flow_exo_post,3.0.5,59.43497546,
,14,1,67,,,,,,,,,,,,4.6,90,4.6,right,1,0.4513176,right,,,,,,,,,3,3,2019_Mar_31_1518,Flow_exo_post,3.0.5,59.43497546,
,15,1,66,,,,,,,,,,,,4.6,90,4.6,right,1,0.7016023,right,,,,,,,,,3,3,2019_Mar_31_1518,Flow_exo_post,3.0.5,59.43497546,
,16,1,65,,,,,,,,,,,,4.6,0,4.6,right,1,0.6352688,right,,,,,,,,,3,3,2019_Mar_31_1518,Flow_exo_post,3.0.5,59.43497546,
,17,1,65,,,,,,,,,,,,4.6,90,4.6,right,1,1.2526244,right,,,,,,,,,3,3,2019_Mar_31_1518,Flow_exo_post,3.0.5,59.43497546,
,18,1,65,,,,,,,,,,,,4.6,90,-4.6,left,0,1.1015135,right,,,,,,,,,3,3,2019_Mar_31_1518,Flow_exo_post,3.0.5,59.43497546,
,19,1,66,,,,,,,,,,,,4.6,90,4.6,right,1,0.702119,right,,,,,,,,,3,3,2019_Mar_31_1518,Flow_exo_post,3.0.5,59.43497546,
,20,1,66,,,,,,,,,,,,4.6,0,4.6,right,1,1.6034411,right,,,,,,,,,3,3,2019_Mar_31_1518,Flow_exo_post,3.0.5,59.43497546,
,21,1,66,,,,,,,,,,,,4.6,0,-4.6,left,0,1.6868648,right,,,,,,,,,3,3,2019_Mar_31_1518,Flow_exo_post,3.0.5,59.43497546,
,22,1,67,,,,,,,,,,,,-4.6,0,-4.6,left,1,0.5184368,left,,,,,,,,,3,3,2019_Mar_31_1518,Flow_exo_post,3.0.5,59.43497546,
,23,1,67,,,,,,,,,,,,-4.6,90,-4.6,left,1,0.6853212,left,,,,,,,,,3,3,2019_Mar_31_1518,Flow_exo_post,3.0.5,59.43497546,
,24,1,67,,,,,,,,,,,,-4.6,90,-4.6,left,1,0.5172037,left,,,,,,,,,3,3,2019_Mar_31_1518,Flow_exo_post,3.0.5,59.43497546,
,25,1,66,,,,,,,,,,,,4.6,0,4.6,right,0,0.7685326,left,,,,,,,,,3,3,2019_Mar_31_1518,Flow_exo_post,3.0.5,59.43497546,
,26,1,67,,,,,,,,,,,,4.6,0,4.6,right,1,0.5019023,right,,,,,,,,,3,3,2019_Mar_31_1518,Flow_exo_post,3.0.5,59.43497546,
,27,1,67,,,,,,,,,,,,-4.6,90,4.6,right,1,1.786595,right,,,,,,,,,3,3,2019_Mar_31_1518,Flow_exo_post,3.0.5,59.43497546,
,28,1,67,,,,,,,,,,,,-4.6,90,-4.6,left,0,1.0861535,right,,,,,,,,,3,3,2019_Mar_31_1518,Flow_exo_post,3.0.5,59.43497546,
,29,1,68,,,,,,,,,,,,4.6,90,4.6,right,1,1.3864629,right,,,,,,,,,3,3,2019_Mar_31_1518,Flow_exo_post,3.0.5,59.43497546,
,30,1,68,,,,,,,,,,,,-4.6,0,-4.6,left,1,0.6516085,left,,,,,,,,,3,3,2019_Mar_31_1518,Flow_exo_post,3.0.5,59.43497546,
,31,1,68,,,,,,,,,,,,4.6,0,4.6,right,1,0.4512854,right,,,,,,,,,3,3,2019_Mar_31_1518,Flow_exo_post,3.0.5,59.43497546,
,32,1,67,,,,,,,,,,,,4.6,90,4.6,right,1,0.8342139,right,,,,,,,,,3,3,2019_Mar_31_1518,Flow_exo_post,3.0.5,59.43497546,
,33,1,67,,,,,,,,,,,,-4.6,90,4.6,right,0,0.8023027,left,,,,,,,,,3,3,2019_Mar_31_1518,Flow_exo_post,3.0.5,59.43497546,
,34,1,68,,,,,,,,,,,,-4.6,90,-4.6,left,1,0.6675058,left,,,,,,,,,3,3,2019_Mar_31_1518,Flow_exo_post,3.0.5,59.43497546,
,35,1,68,,,,,,,,,,,,-4.6,0,4.6,right,0,0.7519098,left,,,,,,,,,3,3,2019_Mar_31_1518,Flow_exo_post,3.0.5,59.43497546,
,36,1,69,,,,,,,,,,,,4.6,90,4.6,right,1,0.5347465,right,,,,,,,,,3,3,2019_Mar_31_1518,Flow_exo_post,3.0.5,59.43497546,
,37,1,69,,,,,,,,,,,,4.6,0,-4.6,left,1,0.8695831,left,,,,,,,,,3,3,2019_Mar_31_1518,Flow_exo_post,3.0.5,59.43497546,
,38,1,69,,,,,,,,,,,,-4.6,90,-4.6,left,1,0.5345326,left,,,,,,,,,3,3,2019_Mar_31_1518,Flow_exo_post,3.0.5,59.43497546,
,39,1,68,,,,,,,,,,,,-4.6,90,-4.6,left,1,0.5015167,left,,,,,,,,,3,3,2019_Mar_31_1518,Flow_exo_post,3.0.5,59.43497546,
,40,1,68,,,,,,,,,,,,-4.6,90,-4.6,left,1,0.5350186,left,,,,,,,,,3,3,2019_Mar_31_1518,Flow_exo_post,3.0.5,59.43497546,
,41,1,68,,,,,,,,,,,,4.6,90,4.6,right,1,0.4345651,right,,,,,,,,,3,3,2019_Mar_31_1518,Flow_exo_post,3.0.5,59.43497546,
,42,1,67,,,,,,,,,,,,4.6,0,-4.6,left,0,2.4207111,right,,,,,,,,,3,3,2019_Mar_31_1518,Flow_exo_post,3.0.5,59.43497546,
,43,1,68,,,,,,,,,,,,4.6,0,-4.6,left,0,1.7527922,right,,,,,,,,,3,3,2019_Mar_31_1518,Flow_exo_post,3.0.5,59.43497546,
,44,1,69,,,,,,,,,,,,-4.6,0,4.6,right,0,0.5344384,left,,,,,,,,,3,3,2019_Mar_31_1518,Flow_exo_post,3.0.5,59.43497546,
,45,1,70,,,,,,,,,,,,4.6,0,-4.6,left,1,0.6519477,left,,,,,,,,,3,3,2019_Mar_31_1518,Flow_exo_post,3.0.5,59.43497546,
,46,1,70,,,,,,,,,,,,-4.6,90,4.6,right,0,1.0015612,left,,,,,,,,,3,3,2019_Mar_31_1518,Flow_exo_post,3.0.5,59.43497546,
,47,1,71,,,,,,,,,,,,4.6,90,-4.6,left,1,0.5848385,left,,,,,,,,,3,3,2019_Mar_31_1518,Flow_exo_post,3.0.5,59.43497546,
,48,1,71,,,,,,,,,,,,4.6,90,4.6,right,1,0.8686376,right,,,,,,,,,3,3,2019_Mar_31_1518,Flow_exo_post,3.0.5,59.43497546,
,49,1,71,,,,,,,,,,,,-4.6,0,4.6,right,1,0.9520747,right,,,,,,,,,3,3,2019_Mar_31_1518,Flow_exo_post,3.0.5,59.43497546,
,50,1,70,,,,,,,,,,,,4.6,90,-4.6,left,1,0.6187993,left,,,,,,,,,3,3,2019_Mar_31_1518,Flow_exo_post,3.0.5,59.43497546,
,51,1,70,,,,,,,,,,,,4.6,0,-4.6,left,1,0.6850798,left,,,,,,,,,3,3,2019_Mar_31_1518,Flow_exo_post,3.0.5,59.43497546,
,52,1,70,,,,,,,,,,,,4.6,90,-4.6,left,1,0.7851266,left,,,,,,,,,3,3,2019_Mar_31_1518,Flow_exo_post,3.0.5,59.43497546,
,53,1,69,,,,,,,,,,,,-4.6,90,-4.6,left,1,0.5858811,left,,,,,,,,,3,3,2019_Mar_31_1518,Flow_exo_post,3.0.5,59.43497546,
,54,1,69,,,,,,,,,,,,4.6,0,4.6,right,1,1.3522139,right,,,,,,,,,3,3,2019_Mar_31_1518,Flow_exo_post,3.0.5,59.43497546,
,55,1,69,,,,,,,,,,,,-4.6,0,4.6,right,1,0.7180644,right,,,,,,,,,3,3,2019_Mar_31_1518,Flow_exo_post,3.0.5,59.43497546,
,56,1,68,,,,,,,,,,,,-4.6,90,4.6,right,1,0.8027511,right,,,,,,,,,3,3,2019_Mar_31_1518,Flow_exo_post,3.0.5,59.43497546,
,57,1,68,,,,,,,,,,,,-4.6,0,-4.6,left,1,1.2857579,left,,,,,,,,,3,3,2019_Mar_31_1518,Flow_exo_post,3.0.5,59.43497546,
,58,1,68,,,,,,,,,,,,4.6,90,4.6,right,1,0.651877,right,,,,,,,,,3,3,2019_Mar_31_1518,Flow_exo_post,3.0.5,59.43497546,
,59,1,67,,,,,,,,,,,,-4.6,90,-4.6,left,1,1.4864579,left,,,,,,,,,3,3,2019_Mar_31_1518,Flow_exo_post,3.0.5,59.43497546,
,60,1,67,,,,,,,,,,,,4.6,0,-4.6,left,0,0.5350421,right,,,,,,,,,3,3,2019_Mar_31_1518,Flow_exo_post,3.0.5,59.43497546,
,61,1,68,,,,,,,,,,,,4.6,0,-4.6,left,1,1.2528715,left,,,,,,,,,3,3,2019_Mar_31_1518,Flow_exo_post,3.0.5,59.43497546,
,62,1,68,,,,,,,,,,,,4.6,90,-4.6,left,1,0.8018355,left,,,,,,,,,3,3,2019_Mar_31_1518,Flow_exo_post,3.0.5,59.43497546,
,63,1,68,,,,,,,,,,,,-4.6,90,-4.6,left,1,0.6176527,left,,,,,,,,,3,3,2019_Mar_31_1518,Flow_exo_post,3.0.5,59.43497546,
,64,1,67,,,,,,,,,,,,4.6,0,4.6,right,1,0.6188971,right,,,,,,,,,3,3,2019_Mar_31_1518,Flow_exo_post,3.0.5,59.43497546,
,65,1,67,,,,,,,,,,,,4.6,90,4.6,right,1,2.1192962,right,,,,,,,,,3,3,2019_Mar_31_1518,Flow_exo_post,3.0.5,59.43497546,
,66,1,67,,,,,,,,,,,,4.6,90,-4.6,left,1,0.7039416,left,,,,,,,,,3,3,2019_Mar_31_1518,Flow_exo_post,3.0.5,59.43497546,
,67,1,66,,,,,,,,,,,,-4.6,90,-4.6,left,1,0.651432,left,,,,,,,,,3,3,2019_Mar_31_1518,Flow_exo_post,3.0.5,59.43497546,
,68,1,66,,,,,,,,,,,,4.6,90,4.6,right,1,0.8188177,right,,,,,,,,,3,3,2019_Mar_31_1518,Flow_exo_post,3.0.5,59.43497546,
,69,1,66,,,,,,,,,,,,-4.6,0,-4.6,left,1,0.5182025,left,,,,,,,,,3,3,2019_Mar_31_1518,Flow_exo_post,3.0.5,59.43497546,
,70,1,65,,,,,,,,,,,,-4.6,90,-4.6,left,1,0.5681727,left,,,,,,,,,3,3,2019_Mar_31_1518,Flow_exo_post,3.0.5,59.43497546,
,71,1,65,,,,,,,,,,,,4.6,90,4.6,right,1,0.5347115,right,,,,,,,,,3,3,2019_Mar_31_1518,Flow_exo_post,3.0.5,59.43497546,
,72,1,65,,,,,,,,,,,,-4.6,0,4.6,right,0,0.5683541,left,,,,,,,,,3,3,2019_Mar_31_1518,Flow_exo_post,3.0.5,59.43497546,
,73,1,66,,,,,,,,,,,,-4.6,0,4.6,right,0,0.7352555,left,,,,,,,,,3,3,2019_Mar_31_1518,Flow_exo_post,3.0.5,59.43497546,
,74,1,67,,,,,,,,,,,,-4.6,90,4.6,right,0,0.8855536,left,,,,,,,,,3,3,2019_Mar_31_1518,Flow_exo_post,3.0.5,59.43497546,
,75,1,68,,,,,,,,,,,,4.6,0,-4.6,left,1,0.6352303,left,,,,,,,,,3,3,2019_Mar_31_1518,Flow_exo_post,3.0.5,59.43497546,
,76,1,68,,,,,,,,,,,,-4.6,0,4.6,right,0,0.5347985,left,,,,,,,,,3,3,2019_Mar_31_1518,Flow_exo_post,3.0.5,59.43497546,
,77,1,69,,,,,,,,,,,,4.6,90,-4.6,left,1,0.7018504,left,,,,,,,,,3,3,2019_Mar_31_1518,Flow_exo_post,3.0.5,59.43497546,
,78,1,69,,,,,,,,,,,,-4.6,0,-4.6,left,1,0.5181949,left,,,,,,,,,3,3,2019_Mar_31_1518,Flow_exo_post,3.0.5,59.43497546,
,79,1,69,,,,,,,,,,,,4.6,0,4.6,right,1,1.0857524,right,,,,,,,,,3,3,2019_Mar_31_1518,Flow_exo_post,3.0.5,59.43497546,
,80,1,68,,,,,,,,,,,,-4.6,90,-4.6,left,1,0.4679391,left,,,,,,,,,3,3,2019_Mar_31_1518,Flow_exo_post,3.0.5,59.43497546,
,81,1,68,,,,,,,,,,,,4.6,90,4.6,right,1,0.5006297,right,,,,,,,,,3,3,2019_Mar_31_1518,Flow_exo_post,3.0.5,59.43497546,
,82,1,68,,,,,,,,,,,,-4.6,90,-4.6,left,1,0.5350115,left,,,,,,,,,3,3,2019_Mar_31_1518,Flow_exo_post,3.0.5,59.43497546,
,83,1,67,,,,,,,,,,,,-4.6,0,4.6,right,1,0.735095,right,,,,,,,,,3,3,2019_Mar_31_1518,Flow_exo_post,3.0.5,59.43497546,
,84,1,67,,,,,,,,,,,,4.6,0,4.6,right,1,0.4511997,right,,,,,,,,,3,3,2019_Mar_31_1518,Flow_exo_post,3.0.5,59.43497546,
,85,1,67,,,,,,,,,,,,4.6,90,4.6,right,0,0.6688368,left,,,,,,,,,3,3,2019_Mar_31_1518,Flow_exo_post,3.0.5,59.43497546,
,86,1,68,,,,,,,,,,,,4.6,90,-4.6,left,1,0.7353596,left,,,,,,,,,3,3,2019_Mar_31_1518,Flow_exo_post,3.0.5,59.43497546,
,87,1,68,,,,,,,,,,,,-4.6,90,4.6,right,0,0.9184869,left,,,,,,,,,3,3,2019_Mar_31_1518,Flow_exo_post,3.0.5,59.43497546,
,88,1,69,,,,,,,,,,,,-4.6,90,-4.6,left,1,0.5513492,left,,,,,,,,,3,3,2019_Mar_31_1518,Flow_exo_post,3.0.5,59.43497546,
,89,1,69,,,,,,,,,,,,4.6,90,-4.6,left,1,0.7685657,left,,,,,,,,,3,3,2019_Mar_31_1518,Flow_exo_post,3.0.5,59.43497546,
,90,1,69,,,,,,,,,,,,-4.6,0,4.6,right,1,0.9684447,right,,,,,,,,,3,3,2019_Mar_31_1518,Flow_exo_post,3.0.5,59.43497546,
,,,,0,1,81,,,,,,,,,,90,-4.6,left,,,,0,1,0.6185912,left,,,,,3,3,2019_Mar_31_1518,Flow_exo_post,3.0.5,59.43497546,
,,,,1,1,80,,,,,,,,,,90,-4.6,left,,,,180,1,0.635004,left,,,,,3,3,2019_Mar_31_1518,Flow_exo_post,3.0.5,59.43497546,
,,,,2,1,79,,,,,,,,,,0,-4.6,left,,,,0,1,0.9180839,left,,,,,3,3,2019_Mar_31_1518,Flow_exo_post,3.0.5,59.43497546,
,,,,3,1,78,,,,,,,,,,90,4.6,right,,,,0,1,0.751411,right,,,,,3,3,2019_Mar_31_1518,Flow_exo_post,3.0.5,59.43497546,
,,,,4,1,77,,,,,,,,,,90,-4.6,left,,,,0,1,0.6352344,left,,,,,3,3,2019_Mar_31_1518,Flow_exo_post,3.0.5,59.43497546,
,,,,5,1,76,,,,,,,,,,90,-4.6,left,,,,0,1,1.0022633,left,,,,,3,3,2019_Mar_31_1518,Flow_exo_post,3.0.5,59.43497546,
,,,,6,1,75,,,,,,,,,,90,4.6,right,,,,180,1,0.5186341,right,,,,,3,3,2019_Mar_31_1518,Flow_exo_post,3.0.5,59.43497546,
,,,,7,1,74,,,,,,,,,,0,4.6,right,,,,0,1,0.6507294,right,,,,,3,3,2019_Mar_31_1518,Flow_exo_post,3.0.5,59.43497546,
,,,,8,1,73,,,,,,,,,,90,-4.6,left,,,,0,1,1.4026179,left,,,,,3,3,2019_Mar_31_1518,Flow_exo_post,3.0.5,59.43497546,
,,,,9,1,72,,,,,,,,,,90,4.6,right,,,,180,1,0.5190638,right,,,,,3,3,2019_Mar_31_1518,Flow_exo_post,3.0.5,59.43497546,
,,,,10,1,71,,,,,,,,,,90,-4.6,left,,,,180,1,0.501404,left,,,,,3,3,2019_Mar_31_1518,Flow_exo_post,3.0.5,59.43497546,
,,,,11,1,70,,,,,,,,,,90,-4.6,left,,,,180,1,0.4681997,left,,,,,3,3,2019_Mar_31_1518,Flow_exo_post,3.0.5,59.43497546,
,,,,12,1,69,,,,,,,,,,90,4.6,right,,,,180,1,0.4336838,right,,,,,3,3,2019_Mar_31_1518,Flow_exo_post,3.0.5,59.43497546,
,,,,13,1,68,,,,,,,,,,90,4.6,right,,,,180,1,0.5361157,right,,,,,3,3,2019_Mar_31_1518,Flow_exo_post,3.0.5,59.43497546,
,,,,14,1,67,,,,,,,,,,90,4.6,right,,,,0,1,0.4507943,right,,,,,3,3,2019_Mar_31_1518,Flow_exo_post,3.0.5,59.43497546,
,,,,15,1,66,,,,,,,,,,90,-4.6,left,,,,180,1,0.6682406,left,,,,,3,3,2019_Mar_31_1518,Flow_exo_post,3.0.5,59.43497546,
,,,,16,1,65,,,,,,,,,,0,-4.6,left,,,,0,0,1.1525729,right,,,,,3,3,2019_Mar_31_1518,Flow_exo_post,3.0.5,59.43497546,
,,,,17,1,66,,,,,,,,,,0,4.6,right,,,,0,1,1.3700828,right,,,,,3,3,2019_Mar_31_1518,Flow_exo_post,3.0.5,59.43497546,
,,,,18,1,66,,,,,,,,,,0,4.6,right,,,,180,0,0.5676856,left,,,,,3,3,2019_Mar_31_1518,Flow_exo_post,3.0.5,59.43497546,
,,,,19,1,67,,,,,,,,,,0,-4.6,left,,,,0,1,1.6184527,left,,,,,3,3,2019_Mar_31_1518,Flow_exo_post,3.0.5,59.43497546,
,,,,20,1,67,,,,,,,,,,90,-4.6,left,,,,180,1,0.6180718,left,,,,,3,3,2019_Mar_31_1518,Flow_exo_post,3.0.5,59.43497546,
,,,,21,1,67,,,,,,,,,,90,-4.6,left,,,,0,0,0.6852658,right,,,,,3,3,2019_Mar_31_1518,Flow_exo_post,3.0.5,59.43497546,
,,,,22,1,68,,,,,,,,,,0,-4.6,left,,,,180,1,0.7181562,left,,,,,3,3,2019_Mar_31_1518,Flow_exo_post,3.0.5,59.43497546,
,,,,23,1,68,,,,,,,,,,0,4.6,right,,,,180,0,2.153743,left,,,,,3,3,2019_Mar_31_1518,Flow_exo_post,3.0.5,59.43497546,
,,,,24,1,69,,,,,,,,,,90,-4.6,left,,,,180,1,0.7346223,left,,,,,3,3,2019_Mar_31_1518,Flow_exo_post,3.0.5,59.43497546,
,,,,25,1,69,,,,,,,,,,90,-4.6,left,,,,0,1,0.9022783,left,,,,,3,3,2019_Mar_31_1518,Flow_exo_post,3.0.5,59.43497546,
,,,,26,1,69,,,,,,,,,,90,-4.6,left,,,,180,1,0.601865,left,,,,,3,3,2019_Mar_31_1518,Flow_exo_post,3.0.5,59.43497546,
,,,,27,1,68,,,,,,,,,,0,-4.6,left,,,,0,0,1.0021974,right,,,,,3,3,2019_Mar_31_1518,Flow_exo_post,3.0.5,59.43497546,
,,,,28,1,69,,,,,,,,,,90,4.6,right,,,,0,1,0.5508373,right,,,,,3,3,2019_Mar_31_1518,Flow_exo_post,3.0.5,59.43497546,
,,,,29,1,69,,,,,,,,,,0,-4.6,left,,,,0,1,0.7520089,left,,,,,3,3,2019_Mar_31_1518,Flow_exo_post,3.0.5,59.43497546,
,,,,30,1,69,,,,,,,,,,90,4.6,right,,,,0,1,0.8663533,right,,,,,3,3,2019_Mar_31_1518,Flow_exo_post,3.0.5,59.43497546,
,,,,31,1,68,,,,,,,,,,90,-4.6,left,,,,0,0,1.3867385,right,,,,,3,3,2019_Mar_31_1518,Flow_exo_post,3.0.5,59.43497546,
,,,,32,1,69,,,,,,,,,,0,4.6,right,,,,0,1,0.6529665,right,,,,,3,3,2019_Mar_31_1518,Flow_exo_post,3.0.5,59.43497546,
,,,,33,1,69,,,,,,,,,,0,4.6,right,,,,180,0,1.1858712,left,,,,,3,3,2019_Mar_31_1518,Flow_exo_post,3.0.5,59.43497546,
,,,,34,1,70,,,,,,,,,,90,4.6,right,,,,0,1,0.6022761,right,,,,,3,3,2019_Mar_31_1518,Flow_exo_post,3.0.5,59.43497546,
,,,,35,1,70,,,,,,,,,,90,-4.6,left,,,,0,0,1.3024144,right,,,,,3,3,2019_Mar_31_1518,Flow_exo_post,3.0.5,59.43497546,
,,,,36,1,71,,,,,,,,,,90,4.6,right,,,,180,1,0.6853176,right,,,,,3,3,2019_Mar_31_1518,Flow_exo_post,3.0.5,59.43497546,
,,,,37,1,71,,,,,,,,,,90,4.6,right,,,,0,1,0.6181537,right,,,,,3,3,2019_Mar_31_1518,Flow_exo_post,3.0.5,59.43497546,
,,,,38,1,71,,,,,,,,,,0,-4.6,left,,,,0,1,1.736286,left,,,,,3,3,2019_Mar_31_1518,Flow_exo_post,3.0.5,59.43497546,
,,,,39,1,70,,,,,,,,,,90,-4.6,left,,,,180,1,0.9007918,left,,,,,3,3,2019_Mar_31_1518,Flow_exo_post,3.0.5,59.43497546,
,,,,40,1,70,,,,,,,,,,90,4.6,right,,,,0,1,0.5506027,right,,,,,3,3,2019_Mar_31_1518,Flow_exo_post,3.0.5,59.43497546,
,,,,41,1,70,,,,,,,,,,0,4.6,right,,,,180,1,0.802326,right,,,,,3,3,2019_Mar_31_1518,Flow_exo_post,3.0.5,59.43497546,
,,,,42,1,69,,,,,,,,,,90,4.6,right,,,,180,1,0.9016573,right,,,,,3,3,2019_Mar_31_1518,Flow_exo_post,3.0.5,59.43497546,
,,,,43,1,69,,,,,,,,,,90,-4.6,left,,,,0,0,1.5690823,right,,,,,3,3,2019_Mar_31_1518,Flow_exo_post,3.0.5,59.43497546,
,,,,44,1,70,,,,,,,,,,0,-4.6,left,,,,0,1,0.9354707,left,,,,,3,3,2019_Mar_31_1518,Flow_exo_post,3.0.5,59.43497546,
,,,,45,1,70,,,,,,,,,,90,4.6,right,,,,0,1,0.5164552,right,,,,,3,3,2019_Mar_31_1518,Flow_exo_post,3.0.5,59.43497546,
,,,,46,1,70,,,,,,,,,,90,-4.6,left,,,,180,1,0.6514678,left,,,,,3,3,2019_Mar_31_1518,Flow_exo_post,3.0.5,59.43497546,
,,,,47,1,69,,,,,,,,,,90,-4.6,left,,,,180,1,0.6996987,left,,,,,3,3,2019_Mar_31_1518,Flow_exo_post,3.0.5,59.43497546,
,,,,48,1,69,,,,,,,,,,90,4.6,right,,,,0,1,0.5185862,right,,,,,3,3,2019_Mar_31_1518,Flow_exo_post,3.0.5,59.43497546,
,,,,49,1,69,,,,,,,,,,0,-4.6,left,,,,0,0,2.4363306,right,,,,,3,3,2019_Mar_31_1518,Flow_exo_post,3.0.5,59.43497546,
,,,,50,1,70,,,,,,,,,,0,4.6,right,,,,0,1,0.5015757,right,,,,,3,3,2019_Mar_31_1518,Flow_exo_post,3.0.5,59.43497546,
,,,,51,1,70,,,,,,,,,,90,4.6,right,,,,180,1,1.2361505,right,,,,,3,3,2019_Mar_31_1518,Flow_exo_post,3.0.5,59.43497546,
,,,,52,1,70,,,,,,,,,,0,4.6,right,,,,180,1,1.1016906,right,,,,,3,3,2019_Mar_31_1518,Flow_exo_post,3.0.5,59.43497546,
,,,,53,1,69,,,,,,,,,,0,4.6,right,,,,180,0,1.0352773,left,,,,,3,3,2019_Mar_31_1518,Flow_exo_post,3.0.5,59.43497546,
,,,,54,1,70,,,,,,,,,,0,4.6,right,,,,0,0,0.9184013,left,,,,,3,3,2019_Mar_31_1518,Flow_exo_post,3.0.5,59.43497546,
,,,,55,1,71,,,,,,,,,,90,4.6,right,,,,180,1,0.6851532,right,,,,,3,3,2019_Mar_31_1518,Flow_exo_post,3.0.5,59.43497546,
,,,,56,1,71,,,,,,,,,,90,-4.6,left,,,,0,1,2.5371198,left,,,,,3,3,2019_Mar_31_1518,Flow_exo_post,3.0.5,59.43497546,
,,,,57,1,71,,,,,,,,,,90,-4.6,left,,,,0,1,0.7688389,left,,,,,3,3,2019_Mar_31_1518,Flow_exo_post,3.0.5,59.43497546,
,,,,58,1,70,,,,,,,,,,90,4.6,right,,,,180,1,0.9180247,right,,,,,3,3,2019_Mar_31_1518,Flow_exo_post,3.0.5,59.43497546,
,,,,59,1,70,,,,,,,,,,90,4.6,right,,,,0,1,0.8679003,right,,,,,3,3,2019_Mar_31_1518,Flow_exo_post,3.0.5,59.43497546,
,,,,60,1,70,,,,,,,,,,90,-4.6,left,,,,0,1,0.6350948,left,,,,,3,3,2019_Mar_31_1518,Flow_exo_post,3.0.5,59.43497546,
,,,,61,1,69,,,,,,,,,,90,-4.6,left,,,,180,1,0.8524394,left,,,,,3,3,2019_Mar_31_1518,Flow_exo_post,3.0.5,59.43497546,
,,,,62,1,69,,,,,,,,,,0,4.6,right,,,,180,0,1.5863244,left,,,,,3,3,2019_Mar_31_1518,Flow_exo_post,3.0.5,59.43497546,
,,,,63,1,70,,,,,,,,,,0,-4.6,left,,,,0,1,2.1869288,left,,,,,3,3,2019_Mar_31_1518,Flow_exo_post,3.0.5,59.43497546,
,,,,64,1,70,,,,,,,,,,90,4.6,right,,,,180,1,1.3692584,right,,,,,3,3,2019_Mar_31_1518,Flow_exo_post,3.0.5,59.43497546,
,,,,65,1,70,,,,,,,,,,90,-4.6,left,,,,180,1,0.6348061,left,,,,,3,3,2019_Mar_31_1518,Flow_exo_post,3.0.5,59.43497546,
,,,,,,,,,,,,,,,,,,,,,,,,,,space,2.4517238,,,3,3,2019_Mar_31_1518,Flow_exo_post,3.0.5,59.43497546,
My state (body feelings, emotions and thoughts) during the task on the computer was similar to the state I had during my sport performance.,,,,,,,0,0,0,0,,,,,,,,,,,,,,,,,,3,5.4,3,3,2019_Mar_31_1518,Flow_exo_post,3.0.5,59.43497546
I felt as though I had everything under control.,,,,,,,,,,,0,0,0,12,,,,,,,,,,,,,,4,2.177,3,3,2019_Mar_31_1518,Flow_exo_post,3.0.5,59.43497546,
Things just seemed to happen automatically.,,,,,,,,,,,0,1,1,21,,,,,,,,,,,,,,3,2.556,3,3,2019_Mar_31_1518,Flow_exo_post,3.0.5,59.43497546,
I had a strong sense of what I wanted to accomplish.,,,,,,,,,,,0,2,2,0,,,,,,,,,,,,,,4,2.697,3,3,2019_Mar_31_1518,Flow_exo_post,3.0.5,59.43497546,
I had a good idea while I was performing about how well I was doing.,,,,,,,,,,,0,3,3,8,,,,,,,,,,,,,,4,1.749,3,3,2019_Mar_31_1518,Flow_exo_post,3.0.5,59.43497546,
I was not concerned with how I was presenting myself.,,,,,,,,,,,0,4,4,15,,,,,,,,,,,,,,4,2.757,3,3,2019_Mar_31_1518,Flow_exo_post,3.0.5,59.43497546,
Time seemed to alter (either slows down or speeds up).,,,,,,,,,,,0,5,5,23,,,,,,,,,,,,,,3,3.246,3,3,2019_Mar_31_1518,Flow_exo_post,3.0.5,59.43497546,
I was not worried about what others might be thinking of me.,,,,,,,,,,,0,6,6,16,,,,,,,,,,,,,,4,2.487,3,3,2019_Mar_31_1518,Flow_exo_post,3.0.5,59.43497546,
I did things spontaneously without having to think.,,,,,,,,,,,0,7,7,22,,,,,,,,,,,,,,2,3.511,3,3,2019_Mar_31_1518,Flow_exo_post,3.0.5,59.43497546,
I knew what I want to achieve.,,,,,,,,,,,0,8,8,1,,,,,,,,,,,,,,4,3.983,3,3,2019_Mar_31_1518,Flow_exo_post,3.0.5,59.43497546,
The way time passed seemed to be different from normal.,,,,,,,,,,,0,9,9,24,,,,,,,,,,,,,,3,1.394,3,3,2019_Mar_31_1518,Flow_exo_post,3.0.5,59.43497546,
I lost my normal awareness of time.,,,,,,,,,,,0,10,10,20,,,,,,,,,,,,,,2,5.6,3,3,2019_Mar_31_1518,Flow_exo_post,3.0.5,59.43497546,
My attention was focused entirely on what I was doing.,,,,,,,,,,,0,11,11,3,,,,,,,,,,,,,,4,6.306,3,3,2019_Mar_31_1518,Flow_exo_post,3.0.5,59.43497546,
The experience left me feeling great.,,,,,,,,,,,0,12,12,18,,,,,,,,,,,,,,5,2.76,3,3,2019_Mar_31_1518,Flow_exo_post,3.0.5,59.43497546,
I had total concentration.,,,,,,,,,,,0,13,13,5,,,,,,,,,,,,,,3,4.516,3,3,2019_Mar_31_1518,Flow_exo_post,3.0.5,59.43497546,
I had no difficulty concentrating.,,,,,,,,,,,0,14,14,6,,,,,,,,,,,,,,2,3.232,3,3,2019_Mar_31_1518,Flow_exo_post,3.0.5,59.43497546,
I was not concerned with how others might be evaluating me.,,,,,,,,,,,0,15,15,14,,,,,,,,,,,,,,5,4.324,3,3,2019_Mar_31_1518,Flow_exo_post,3.0.5,59.43497546,
I felt that I had everything under control.,,,,,,,,,,,0,16,16,13,,,,,,,,,,,,,,5,4.183,3,3,2019_Mar_31_1518,Flow_exo_post,3.0.5,59.43497546,
I felt just the right amount of challenge. ,,,,,,,,,,,0,17,17,11,,,,,,,,,,,,,,4,2.071,3,3,2019_Mar_31_1518,Flow_exo_post,3.0.5,59.43497546,
I was challenged, but I believe my skills will allow me to meet that challenge.,,,,,,,,,,,0,18,18,9,,,,,,,,,,,,,,4,3.382,3,3,2019_Mar_31_1518,Flow_exo_post,3.0.5,59.43497546
The challenge and my skills were at an equally high level.,,,,,,,,,,,0,19,19,10,,,,,,,,,,,,,,4,2.653,3,3,2019_Mar_31_1518,Flow_exo_post,3.0.5,59.43497546,
I performed automatically without having to think about it.,,,,,,,,,,,0,20,20,25,,,,,,,,,,,,,,3,3.925,3,3,2019_Mar_31_1518,Flow_exo_post,3.0.5,59.43497546,
It was really clear to me how my performance was going.,,,,,,,,,,,0,21,21,7,,,,,,,,,,,,,,4,8.263,3,3,2019_Mar_31_1518,Flow_exo_post,3.0.5,59.43497546,
My goals were clearly defined. ,,,,,,,,,,,0,22,22,2,,,,,,,,,,,,,,2,3.001,3,3,2019_Mar_31_1518,Flow_exo_post,3.0.5,59.43497546,
It was no effort to keep my mind on what was happening.,,,,,,,,,,,0,23,23,4,,,,,,,,,,,,,,3,6.496,3,3,2019_Mar_31_1518,Flow_exo_post,3.0.5,59.43497546,
I really enjoyed the experience.,,,,,,,,,,,0,24,24,17,,,,,,,,,,,,,,4,1.594,3,3,2019_Mar_31_1518,Flow_exo_post,3.0.5,59.43497546,
The experience was extremely rewarding.,,,,,,,,,,,0,25,25,19,,,,,,,,,,,,,,4,1.109,3,3,2019_Mar_31_1518,Flow_exo_post,3.0.5,59.43497546,
