Questions,Stair.thisTrialN,Stair.stepSize,Stair.intensity,Stair3.thisTrialN,Stair3.stepSize,Stair3.intensity,controlQ.thisRepN,controlQ.thisTrialN,controlQ.thisN,controlQ.thisIndex,Qs.thisRepN,Qs.thisTrialN,Qs.thisN,Qs.thisIndex,cueExoPos,targetXOri,targetXPos,CorrectAns,Stair.response,keyPress_2.rt,keyPress_2.rl,cueOri,Stair3.response,keyPress.rt,keyPress.rl,key_start.keys,key_start.rt,Quest_Ans.response,Quest_Ans.rt,Session,Participant,date,expName,psychopyVersion,frameRate,
,0,1,81,,,,,,,,,,,,4.6,90,-4.6,left,1,2.150169551,left,,,,,,,,,2,185,2019_Apr_05_1601,Flow_exo_post,3.0.5,60.01804177,
,1,1,80,,,,,,,,,,,,-4.6,0,-4.6,left,1,0.600253963,left,,,,,,,,,2,185,2019_Apr_05_1601,Flow_exo_post,3.0.5,60.01804177,
,2,1,79,,,,,,,,,,,,-4.6,90,4.6,right,1,0.650005188,right,,,,,,,,,2,185,2019_Apr_05_1601,Flow_exo_post,3.0.5,60.01804177,
,3,1,78,,,,,,,,,,,,4.6,90,-4.6,left,1,0.533095725,left,,,,,,,,,2,185,2019_Apr_05_1601,Flow_exo_post,3.0.5,60.01804177,
,4,1,77,,,,,,,,,,,,4.6,90,4.6,right,1,0.451329017,right,,,,,,,,,2,185,2019_Apr_05_1601,Flow_exo_post,3.0.5,60.01804177,
,5,1,76,,,,,,,,,,,,4.6,90,-4.6,left,1,0.634384355,left,,,,,,,,,2,185,2019_Apr_05_1601,Flow_exo_post,3.0.5,60.01804177,
,6,1,75,,,,,,,,,,,,4.6,90,4.6,right,1,0.484643409,right,,,,,,,,,2,185,2019_Apr_05_1601,Flow_exo_post,3.0.5,60.01804177,
,7,1,74,,,,,,,,,,,,4.6,90,-4.6,left,1,1.000948363,left,,,,,,,,,2,185,2019_Apr_05_1601,Flow_exo_post,3.0.5,60.01804177,
,8,1,73,,,,,,,,,,,,4.6,0,-4.6,left,1,0.766817196,left,,,,,,,,,2,185,2019_Apr_05_1601,Flow_exo_post,3.0.5,60.01804177,
,9,1,72,,,,,,,,,,,,4.6,90,-4.6,left,1,0.517356589,left,,,,,,,,,2,185,2019_Apr_05_1601,Flow_exo_post,3.0.5,60.01804177,
,10,1,71,,,,,,,,,,,,-4.6,0,4.6,right,1,0.700990351,right,,,,,,,,,2,185,2019_Apr_05_1601,Flow_exo_post,3.0.5,60.01804177,
,11,1,70,,,,,,,,,,,,4.6,0,-4.6,left,1,0.633707022,left,,,,,,,,,2,185,2019_Apr_05_1601,Flow_exo_post,3.0.5,60.01804177,
,12,1,69,,,,,,,,,,,,4.6,90,4.6,right,1,1.100580266,right,,,,,,,,,2,185,2019_Apr_05_1601,Flow_exo_post,3.0.5,60.01804177,
,13,1,68,,,,,,,,,,,,4.6,0,-4.6,left,1,0.933992306,left,,,,,,,,,2,185,2019_Apr_05_1601,Flow_exo_post,3.0.5,60.01804177,
,14,1,67,,,,,,,,,,,,-4.6,0,4.6,right,0,0.499929212,left,,,,,,,,,2,185,2019_Apr_05_1601,Flow_exo_post,3.0.5,60.01804177,
,15,1,68,,,,,,,,,,,,-4.6,0,-4.6,left,1,1.250269818,left,,,,,,,,,2,185,2019_Apr_05_1601,Flow_exo_post,3.0.5,60.01804177,
,16,1,68,,,,,,,,,,,,-4.6,0,-4.6,left,1,0.700117624,left,,,,,,,,,2,185,2019_Apr_05_1601,Flow_exo_post,3.0.5,60.01804177,
,17,1,68,,,,,,,,,,,,4.6,0,4.6,right,1,0.617919886,right,,,,,,,,,2,185,2019_Apr_05_1601,Flow_exo_post,3.0.5,60.01804177,
,18,1,67,,,,,,,,,,,,-4.6,90,-4.6,left,1,0.650272824,left,,,,,,,,,2,185,2019_Apr_05_1601,Flow_exo_post,3.0.5,60.01804177,
,19,1,67,,,,,,,,,,,,4.6,0,4.6,right,1,1.583877252,right,,,,,,,,,2,185,2019_Apr_05_1601,Flow_exo_post,3.0.5,60.01804177,
,20,1,67,,,,,,,,,,,,-4.6,90,-4.6,left,1,0.485996135,left,,,,,,,,,2,185,2019_Apr_05_1601,Flow_exo_post,3.0.5,60.01804177,
,21,1,66,,,,,,,,,,,,-4.6,90,-4.6,left,1,0.466740396,left,,,,,,,,,2,185,2019_Apr_05_1601,Flow_exo_post,3.0.5,60.01804177,
,22,1,66,,,,,,,,,,,,-4.6,0,4.6,right,0,0.43407764,left,,,,,,,,,2,185,2019_Apr_05_1601,Flow_exo_post,3.0.5,60.01804177,
,23,1,67,,,,,,,,,,,,-4.6,90,-4.6,left,1,0.550541042,left,,,,,,,,,2,185,2019_Apr_05_1601,Flow_exo_post,3.0.5,60.01804177,
,24,1,67,,,,,,,,,,,,-4.6,0,4.6,right,0,0.352088871,left,,,,,,,,,2,185,2019_Apr_05_1601,Flow_exo_post,3.0.5,60.01804177,
,25,1,68,,,,,,,,,,,,-4.6,90,-4.6,left,1,0.368293946,left,,,,,,,,,2,185,2019_Apr_05_1601,Flow_exo_post,3.0.5,60.01804177,
,26,1,68,,,,,,,,,,,,-4.6,0,4.6,right,0,0.367508977,left,,,,,,,,,2,185,2019_Apr_05_1601,Flow_exo_post,3.0.5,60.01804177,
,27,1,69,,,,,,,,,,,,4.6,0,4.6,right,1,0.4501712,right,,,,,,,,,2,185,2019_Apr_05_1601,Flow_exo_post,3.0.5,60.01804177,
,28,1,69,,,,,,,,,,,,4.6,0,4.6,right,1,1.316660057,right,,,,,,,,,2,185,2019_Apr_05_1601,Flow_exo_post,3.0.5,60.01804177,
,29,1,69,,,,,,,,,,,,-4.6,90,-4.6,left,1,0.336488886,left,,,,,,,,,2,185,2019_Apr_05_1601,Flow_exo_post,3.0.5,60.01804177,
,30,1,68,,,,,,,,,,,,4.6,90,-4.6,left,1,0.816323572,left,,,,,,,,,2,185,2019_Apr_05_1601,Flow_exo_post,3.0.5,60.01804177,
,31,1,68,,,,,,,,,,,,4.6,0,-4.6,left,1,0.900560096,left,,,,,,,,,2,185,2019_Apr_05_1601,Flow_exo_post,3.0.5,60.01804177,
,32,1,68,,,,,,,,,,,,4.6,90,-4.6,left,1,2.450103321,left,,,,,,,,,2,185,2019_Apr_05_1601,Flow_exo_post,3.0.5,60.01804177,
,33,1,67,,,,,,,,,,,,4.6,90,-4.6,left,1,0.816878238,left,,,,,,,,,2,185,2019_Apr_05_1601,Flow_exo_post,3.0.5,60.01804177,
,34,1,67,,,,,,,,,,,,-4.6,0,4.6,right,0,3.316813269,left,,,,,,,,,2,185,2019_Apr_05_1601,Flow_exo_post,3.0.5,60.01804177,
,35,1,68,,,,,,,,,,,,-4.6,0,4.6,right,0,2.01816774,left,,,,,,,,,2,185,2019_Apr_05_1601,Flow_exo_post,3.0.5,60.01804177,
,36,1,69,,,,,,,,,,,,-4.6,90,-4.6,left,1,2.882862174,left,,,,,,,,,2,185,2019_Apr_05_1601,Flow_exo_post,3.0.5,60.01804177,
,37,1,69,,,,,,,,,,,,4.6,0,-4.6,left,1,0.951767319,left,,,,,,,,,2,185,2019_Apr_05_1601,Flow_exo_post,3.0.5,60.01804177,
,38,1,69,,,,,,,,,,,,-4.6,90,-4.6,left,1,0.635351626,left,,,,,,,,,2,185,2019_Apr_05_1601,Flow_exo_post,3.0.5,60.01804177,
,39,1,68,,,,,,,,,,,,4.6,0,-4.6,left,1,1.167438868,left,,,,,,,,,2,185,2019_Apr_05_1601,Flow_exo_post,3.0.5,60.01804177,
,40,1,68,,,,,,,,,,,,4.6,90,4.6,right,1,0.567175692,right,,,,,,,,,2,185,2019_Apr_05_1601,Flow_exo_post,3.0.5,60.01804177,
,41,1,68,,,,,,,,,,,,-4.6,90,4.6,right,0,1.283816452,left,,,,,,,,,2,185,2019_Apr_05_1601,Flow_exo_post,3.0.5,60.01804177,
,42,1,69,,,,,,,,,,,,4.6,90,-4.6,left,0,0.549983952,right,,,,,,,,,2,185,2019_Apr_05_1601,Flow_exo_post,3.0.5,60.01804177,
,43,1,70,,,,,,,,,,,,4.6,0,-4.6,left,1,0.650849793,left,,,,,,,,,2,185,2019_Apr_05_1601,Flow_exo_post,3.0.5,60.01804177,
,44,1,70,,,,,,,,,,,,4.6,0,4.6,right,1,0.450583321,right,,,,,,,,,2,185,2019_Apr_05_1601,Flow_exo_post,3.0.5,60.01804177,
,45,1,70,,,,,,,,,,,,-4.6,90,4.6,right,0,0.484779166,left,,,,,,,,,2,185,2019_Apr_05_1601,Flow_exo_post,3.0.5,60.01804177,
,46,1,71,,,,,,,,,,,,4.6,90,4.6,right,1,0.467568516,right,,,,,,,,,2,185,2019_Apr_05_1601,Flow_exo_post,3.0.5,60.01804177,
,47,1,71,,,,,,,,,,,,-4.6,90,-4.6,left,1,0.434142124,left,,,,,,,,,2,185,2019_Apr_05_1601,Flow_exo_post,3.0.5,60.01804177,
,48,1,71,,,,,,,,,,,,-4.6,90,4.6,right,1,1.650795005,right,,,,,,,,,2,185,2019_Apr_05_1601,Flow_exo_post,3.0.5,60.01804177,
,49,1,70,,,,,,,,,,,,-4.6,90,4.6,right,0,1.233254077,left,,,,,,,,,2,185,2019_Apr_05_1601,Flow_exo_post,3.0.5,60.01804177,
,50,1,71,,,,,,,,,,,,4.6,90,-4.6,left,1,2.152718397,left,,,,,,,,,2,185,2019_Apr_05_1601,Flow_exo_post,3.0.5,60.01804177,
,51,1,71,,,,,,,,,,,,4.6,90,-4.6,left,1,1.099976145,left,,,,,,,,,2,185,2019_Apr_05_1601,Flow_exo_post,3.0.5,60.01804177,
,52,1,71,,,,,,,,,,,,-4.6,0,4.6,right,0,2.684235458,left,,,,,,,,,2,185,2019_Apr_05_1601,Flow_exo_post,3.0.5,60.01804177,
,53,1,72,,,,,,,,,,,,-4.6,90,-4.6,left,1,0.550958496,left,,,,,,,,,2,185,2019_Apr_05_1601,Flow_exo_post,3.0.5,60.01804177,
,54,1,72,,,,,,,,,,,,-4.6,0,-4.6,left,1,0.583448162,left,,,,,,,,,2,185,2019_Apr_05_1601,Flow_exo_post,3.0.5,60.01804177,
,55,1,72,,,,,,,,,,,,4.6,90,-4.6,left,1,0.850044751,left,,,,,,,,,2,185,2019_Apr_05_1601,Flow_exo_post,3.0.5,60.01804177,
,56,1,71,,,,,,,,,,,,4.6,0,4.6,right,0,2.101727901,left,,,,,,,,,2,185,2019_Apr_05_1601,Flow_exo_post,3.0.5,60.01804177,
,57,1,72,,,,,,,,,,,,4.6,0,4.6,right,1,0.550463951,right,,,,,,,,,2,185,2019_Apr_05_1601,Flow_exo_post,3.0.5,60.01804177,
,58,1,72,,,,,,,,,,,,4.6,0,4.6,right,1,2.500999757,right,,,,,,,,,2,185,2019_Apr_05_1601,Flow_exo_post,3.0.5,60.01804177,
,59,1,72,,,,,,,,,,,,4.6,0,4.6,right,1,0.601520871,right,,,,,,,,,2,185,2019_Apr_05_1601,Flow_exo_post,3.0.5,60.01804177,
,60,1,71,,,,,,,,,,,,-4.6,0,-4.6,left,1,0.534421785,left,,,,,,,,,2,185,2019_Apr_05_1601,Flow_exo_post,3.0.5,60.01804177,
,61,1,71,,,,,,,,,,,,4.6,0,-4.6,left,1,1.151243975,left,,,,,,,,,2,185,2019_Apr_05_1601,Flow_exo_post,3.0.5,60.01804177,
,62,1,71,,,,,,,,,,,,4.6,0,-4.6,left,1,2.250538424,left,,,,,,,,,2,185,2019_Apr_05_1601,Flow_exo_post,3.0.5,60.01804177,
,63,1,70,,,,,,,,,,,,-4.6,0,-4.6,left,1,0.450621139,left,,,,,,,,,2,185,2019_Apr_05_1601,Flow_exo_post,3.0.5,60.01804177,
,64,1,70,,,,,,,,,,,,4.6,0,-4.6,left,1,1.418526624,left,,,,,,,,,2,185,2019_Apr_05_1601,Flow_exo_post,3.0.5,60.01804177,
,65,1,70,,,,,,,,,,,,4.6,90,4.6,right,1,0.816432663,right,,,,,,,,,2,185,2019_Apr_05_1601,Flow_exo_post,3.0.5,60.01804177,
,66,1,69,,,,,,,,,,,,4.6,0,4.6,right,1,0.534749057,right,,,,,,,,,2,185,2019_Apr_05_1601,Flow_exo_post,3.0.5,60.01804177,
,67,1,69,,,,,,,,,,,,4.6,90,4.6,right,1,0.751258908,right,,,,,,,,,2,185,2019_Apr_05_1601,Flow_exo_post,3.0.5,60.01804177,
,68,1,69,,,,,,,,,,,,-4.6,90,4.6,right,0,0.617016129,left,,,,,,,,,2,185,2019_Apr_05_1601,Flow_exo_post,3.0.5,60.01804177,
,69,1,70,,,,,,,,,,,,4.6,0,-4.6,left,1,0.667567353,left,,,,,,,,,2,185,2019_Apr_05_1601,Flow_exo_post,3.0.5,60.01804177,
,70,1,70,,,,,,,,,,,,4.6,0,4.6,right,1,1.033827361,right,,,,,,,,,2,185,2019_Apr_05_1601,Flow_exo_post,3.0.5,60.01804177,
,71,1,70,,,,,,,,,,,,-4.6,90,-4.6,left,1,0.384742415,left,,,,,,,,,2,185,2019_Apr_05_1601,Flow_exo_post,3.0.5,60.01804177,
,,,,0,1,81,,,,,,,,,,0,4.6,right,,,,0,1,0.886053929,right,,,,,2,185,2019_Apr_05_1601,Flow_exo_post,3.0.5,60.01804177,
,,,,1,1,80,,,,,,,,,,0,-4.6,left,,,,180,1,0.667450504,left,,,,,2,185,2019_Apr_05_1601,Flow_exo_post,3.0.5,60.01804177,
,,,,2,1,79,,,,,,,,,,0,4.6,right,,,,0,1,0.950542109,right,,,,,2,185,2019_Apr_05_1601,Flow_exo_post,3.0.5,60.01804177,
,,,,3,1,78,,,,,,,,,,0,-4.6,left,,,,0,1,0.53518542,left,,,,,2,185,2019_Apr_05_1601,Flow_exo_post,3.0.5,60.01804177,
,,,,4,1,77,,,,,,,,,,0,4.6,right,,,,0,1,0.684172912,right,,,,,2,185,2019_Apr_05_1601,Flow_exo_post,3.0.5,60.01804177,
,,,,5,1,76,,,,,,,,,,0,-4.6,left,,,,180,1,0.717608516,left,,,,,2,185,2019_Apr_05_1601,Flow_exo_post,3.0.5,60.01804177,
,,,,6,1,75,,,,,,,,,,90,4.6,right,,,,0,0,2.203839802,left,,,,,2,185,2019_Apr_05_1601,Flow_exo_post,3.0.5,60.01804177,
,,,,7,1,76,,,,,,,,,,90,4.6,right,,,,0,1,0.666691717,right,,,,,2,185,2019_Apr_05_1601,Flow_exo_post,3.0.5,60.01804177,
,,,,8,1,76,,,,,,,,,,0,4.6,right,,,,180,1,0.583863191,right,,,,,2,185,2019_Apr_05_1601,Flow_exo_post,3.0.5,60.01804177,
,,,,9,1,76,,,,,,,,,,90,4.6,right,,,,180,1,1.767111983,right,,,,,2,185,2019_Apr_05_1601,Flow_exo_post,3.0.5,60.01804177,
,,,,10,1,75,,,,,,,,,,90,4.6,right,,,,0,1,1.000593454,right,,,,,2,185,2019_Apr_05_1601,Flow_exo_post,3.0.5,60.01804177,
,,,,11,1,75,,,,,,,,,,0,-4.6,left,,,,180,1,1.35047869,left,,,,,2,185,2019_Apr_05_1601,Flow_exo_post,3.0.5,60.01804177,
,,,,12,1,75,,,,,,,,,,0,-4.6,left,,,,0,1,0.883994779,left,,,,,2,185,2019_Apr_05_1601,Flow_exo_post,3.0.5,60.01804177,
,,,,13,1,74,,,,,,,,,,90,4.6,right,,,,180,1,0.850573236,right,,,,,2,185,2019_Apr_05_1601,Flow_exo_post,3.0.5,60.01804177,
,,,,14,1,74,,,,,,,,,,90,4.6,right,,,,0,1,0.718772151,right,,,,,2,185,2019_Apr_05_1601,Flow_exo_post,3.0.5,60.01804177,
,,,,15,1,74,,,,,,,,,,0,4.6,right,,,,180,1,0.716886093,right,,,,,2,185,2019_Apr_05_1601,Flow_exo_post,3.0.5,60.01804177,
,,,,16,1,73,,,,,,,,,,90,-4.6,left,,,,180,1,0.483414804,left,,,,,2,185,2019_Apr_05_1601,Flow_exo_post,3.0.5,60.01804177,
,,,,17,1,73,,,,,,,,,,0,-4.6,left,,,,180,1,0.467669365,left,,,,,2,185,2019_Apr_05_1601,Flow_exo_post,3.0.5,60.01804177,
,,,,18,1,73,,,,,,,,,,90,4.6,right,,,,180,1,0.583746828,right,,,,,2,185,2019_Apr_05_1601,Flow_exo_post,3.0.5,60.01804177,
,,,,19,1,72,,,,,,,,,,90,4.6,right,,,,180,1,0.616712614,right,,,,,2,185,2019_Apr_05_1601,Flow_exo_post,3.0.5,60.01804177,
,,,,20,1,72,,,,,,,,,,0,-4.6,left,,,,0,1,0.737142073,left,,,,,2,185,2019_Apr_05_1601,Flow_exo_post,3.0.5,60.01804177,
,,,,21,1,72,,,,,,,,,,90,4.6,right,,,,0,1,1.283994391,right,,,,,2,185,2019_Apr_05_1601,Flow_exo_post,3.0.5,60.01804177,
,,,,22,1,71,,,,,,,,,,90,4.6,right,,,,0,0,3.01705162,left,,,,,2,185,2019_Apr_05_1601,Flow_exo_post,3.0.5,60.01804177,
,,,,23,1,72,,,,,,,,,,0,4.6,right,,,,180,1,0.534027603,right,,,,,2,185,2019_Apr_05_1601,Flow_exo_post,3.0.5,60.01804177,
,,,,24,1,72,,,,,,,,,,90,-4.6,left,,,,180,1,0.800113648,left,,,,,2,185,2019_Apr_05_1601,Flow_exo_post,3.0.5,60.01804177,
,,,,25,1,72,,,,,,,,,,0,4.6,right,,,,0,0,1.01875877,left,,,,,2,185,2019_Apr_05_1601,Flow_exo_post,3.0.5,60.01804177,
,,,,26,1,73,,,,,,,,,,0,4.6,right,,,,0,0,1.668573897,left,,,,,2,185,2019_Apr_05_1601,Flow_exo_post,3.0.5,60.01804177,
,,,,27,1,74,,,,,,,,,,90,-4.6,left,,,,0,1,0.635921808,left,,,,,2,185,2019_Apr_05_1601,Flow_exo_post,3.0.5,60.01804177,
,,,,28,1,74,,,,,,,,,,0,4.6,right,,,,180,1,0.783884331,right,,,,,2,185,2019_Apr_05_1601,Flow_exo_post,3.0.5,60.01804177,
,,,,29,1,74,,,,,,,,,,90,4.6,right,,,,180,0,1.083994585,left,,,,,2,185,2019_Apr_05_1601,Flow_exo_post,3.0.5,60.01804177,
,,,,30,1,75,,,,,,,,,,0,-4.6,left,,,,0,1,0.735496984,left,,,,,2,185,2019_Apr_05_1601,Flow_exo_post,3.0.5,60.01804177,
,,,,31,1,75,,,,,,,,,,90,-4.6,left,,,,180,1,0.703658469,left,,,,,2,185,2019_Apr_05_1601,Flow_exo_post,3.0.5,60.01804177,
,,,,32,1,75,,,,,,,,,,90,-4.6,left,,,,0,1,0.567178117,left,,,,,2,185,2019_Apr_05_1601,Flow_exo_post,3.0.5,60.01804177,
,,,,33,1,74,,,,,,,,,,0,-4.6,left,,,,0,1,1.632630174,left,,,,,2,185,2019_Apr_05_1601,Flow_exo_post,3.0.5,60.01804177,
,,,,34,1,74,,,,,,,,,,90,-4.6,left,,,,180,1,0.701382593,left,,,,,2,185,2019_Apr_05_1601,Flow_exo_post,3.0.5,60.01804177,
,,,,35,1,74,,,,,,,,,,90,4.6,right,,,,180,1,0.902084459,right,,,,,2,185,2019_Apr_05_1601,Flow_exo_post,3.0.5,60.01804177,
,,,,36,1,73,,,,,,,,,,90,4.6,right,,,,180,1,1.166856081,right,,,,,2,185,2019_Apr_05_1601,Flow_exo_post,3.0.5,60.01804177,
,,,,37,1,73,,,,,,,,,,0,4.6,right,,,,180,1,0.500384969,right,,,,,2,185,2019_Apr_05_1601,Flow_exo_post,3.0.5,60.01804177,
,,,,38,1,73,,,,,,,,,,90,-4.6,left,,,,0,1,0.383947264,left,,,,,2,185,2019_Apr_05_1601,Flow_exo_post,3.0.5,60.01804177,
,,,,39,1,72,,,,,,,,,,0,4.6,right,,,,0,1,2.485208742,right,,,,,2,185,2019_Apr_05_1601,Flow_exo_post,3.0.5,60.01804177,
,,,,40,1,72,,,,,,,,,,90,-4.6,left,,,,0,1,0.550585163,left,,,,,2,185,2019_Apr_05_1601,Flow_exo_post,3.0.5,60.01804177,
,,,,41,1,72,,,,,,,,,,90,-4.6,left,,,,180,1,0.935134124,left,,,,,2,185,2019_Apr_05_1601,Flow_exo_post,3.0.5,60.01804177,
,,,,42,1,71,,,,,,,,,,90,-4.6,left,,,,180,1,0.634841081,left,,,,,2,185,2019_Apr_05_1601,Flow_exo_post,3.0.5,60.01804177,
,,,,43,1,71,,,,,,,,,,90,4.6,right,,,,180,1,1.700546715,right,,,,,2,185,2019_Apr_05_1601,Flow_exo_post,3.0.5,60.01804177,
,,,,44,1,71,,,,,,,,,,0,-4.6,left,,,,0,1,0.467050214,left,,,,,2,185,2019_Apr_05_1601,Flow_exo_post,3.0.5,60.01804177,
,,,,45,1,70,,,,,,,,,,90,-4.6,left,,,,180,1,0.833231192,left,,,,,2,185,2019_Apr_05_1601,Flow_exo_post,3.0.5,60.01804177,
,,,,46,1,70,,,,,,,,,,90,-4.6,left,,,,180,1,0.717491183,left,,,,,2,185,2019_Apr_05_1601,Flow_exo_post,3.0.5,60.01804177,
,,,,47,1,70,,,,,,,,,,0,4.6,right,,,,0,0,0.583586828,left,,,,,2,185,2019_Apr_05_1601,Flow_exo_post,3.0.5,60.01804177,
,,,,48,1,71,,,,,,,,,,0,4.6,right,,,,180,1,0.618061946,right,,,,,2,185,2019_Apr_05_1601,Flow_exo_post,3.0.5,60.01804177,
,,,,49,1,71,,,,,,,,,,0,-4.6,left,,,,180,1,0.650519127,left,,,,,2,185,2019_Apr_05_1601,Flow_exo_post,3.0.5,60.01804177,
,,,,50,1,71,,,,,,,,,,0,4.6,right,,,,0,0,0.633456355,left,,,,,2,185,2019_Apr_05_1601,Flow_exo_post,3.0.5,60.01804177,
,,,,51,1,72,,,,,,,,,,90,-4.6,left,,,,180,1,0.784389058,left,,,,,2,185,2019_Apr_05_1601,Flow_exo_post,3.0.5,60.01804177,
,,,,52,1,72,,,,,,,,,,90,4.6,right,,,,180,1,0.651072338,right,,,,,2,185,2019_Apr_05_1601,Flow_exo_post,3.0.5,60.01804177,
,,,,53,1,72,,,,,,,,,,90,-4.6,left,,,,180,1,2.61750825,left,,,,,2,185,2019_Apr_05_1601,Flow_exo_post,3.0.5,60.01804177,
,,,,54,1,71,,,,,,,,,,0,4.6,right,,,,0,0,0.885018778,left,,,,,2,185,2019_Apr_05_1601,Flow_exo_post,3.0.5,60.01804177,
,,,,55,1,72,,,,,,,,,,90,-4.6,left,,,,180,1,0.851668023,left,,,,,2,185,2019_Apr_05_1601,Flow_exo_post,3.0.5,60.01804177,
,,,,56,1,72,,,,,,,,,,90,-4.6,left,,,,0,1,0.483539895,left,,,,,2,185,2019_Apr_05_1601,Flow_exo_post,3.0.5,60.01804177,
,,,,57,1,72,,,,,,,,,,0,4.6,right,,,,180,1,1.285487238,right,,,,,2,185,2019_Apr_05_1601,Flow_exo_post,3.0.5,60.01804177,
,,,,58,1,71,,,,,,,,,,0,4.6,right,,,,180,0,0.651147975,left,,,,,2,185,2019_Apr_05_1601,Flow_exo_post,3.0.5,60.01804177,
,,,,59,1,72,,,,,,,,,,90,4.6,right,,,,0,0,3.300551951,left,,,,,2,185,2019_Apr_05_1601,Flow_exo_post,3.0.5,60.01804177,
,,,,60,1,73,,,,,,,,,,0,-4.6,left,,,,0,1,0.583957252,left,,,,,2,185,2019_Apr_05_1601,Flow_exo_post,3.0.5,60.01804177,
,,,,61,1,73,,,,,,,,,,0,-4.6,left,,,,0,1,0.519393921,left,,,,,2,185,2019_Apr_05_1601,Flow_exo_post,3.0.5,60.01804177,
,,,,62,1,73,,,,,,,,,,0,4.6,right,,,,180,1,0.467305729,right,,,,,2,185,2019_Apr_05_1601,Flow_exo_post,3.0.5,60.01804177,
,,,,63,1,72,,,,,,,,,,90,-4.6,left,,,,0,1,0.650404218,left,,,,,2,185,2019_Apr_05_1601,Flow_exo_post,3.0.5,60.01804177,
,,,,64,1,72,,,,,,,,,,90,4.6,right,,,,0,1,0.502426179,right,,,,,2,185,2019_Apr_05_1601,Flow_exo_post,3.0.5,60.01804177,
,,,,65,1,72,,,,,,,,,,0,-4.6,left,,,,0,1,0.53490033,left,,,,,2,185,2019_Apr_05_1601,Flow_exo_post,3.0.5,60.01804177,
,,,,66,1,71,,,,,,,,,,0,-4.6,left,,,,0,1,0.467037123,left,,,,,2,185,2019_Apr_05_1601,Flow_exo_post,3.0.5,60.01804177,
,,,,67,1,71,,,,,,,,,,90,4.6,right,,,,0,0,0.533883119,left,,,,,2,185,2019_Apr_05_1601,Flow_exo_post,3.0.5,60.01804177,
,,,,68,1,72,,,,,,,,,,0,-4.6,left,,,,0,1,0.500742302,left,,,,,2,185,2019_Apr_05_1601,Flow_exo_post,3.0.5,60.01804177,
,,,,69,1,72,,,,,,,,,,0,4.6,right,,,,180,1,0.684682003,right,,,,,2,185,2019_Apr_05_1601,Flow_exo_post,3.0.5,60.01804177,
,,,,70,1,72,,,,,,,,,,0,4.6,right,,,,0,1,1.217139668,right,,,,,2,185,2019_Apr_05_1601,Flow_exo_post,3.0.5,60.01804177,
,,,,71,1,71,,,,,,,,,,90,-4.6,left,,,,0,1,0.667129535,left,,,,,2,185,2019_Apr_05_1601,Flow_exo_post,3.0.5,60.01804177,
,,,,72,1,71,,,,,,,,,,90,-4.6,left,,,,180,1,0.61745831,left,,,,,2,185,2019_Apr_05_1601,Flow_exo_post,3.0.5,60.01804177,
,,,,73,1,71,,,,,,,,,,90,-4.6,left,,,,180,1,0.750102545,left,,,,,2,185,2019_Apr_05_1601,Flow_exo_post,3.0.5,60.01804177,
,,,,74,1,70,,,,,,,,,,0,4.6,right,,,,180,1,1.636346534,right,,,,,2,185,2019_Apr_05_1601,Flow_exo_post,3.0.5,60.01804177,
,,,,75,1,70,,,,,,,,,,90,4.6,right,,,,180,1,0.551966495,right,,,,,2,185,2019_Apr_05_1601,Flow_exo_post,3.0.5,60.01804177,
,,,,76,1,70,,,,,,,,,,0,-4.6,left,,,,0,1,0.484664257,left,,,,,2,185,2019_Apr_05_1601,Flow_exo_post,3.0.5,60.01804177,
,,,,77,1,69,,,,,,,,,,90,4.6,right,,,,0,1,1.066513875,right,,,,,2,185,2019_Apr_05_1601,Flow_exo_post,3.0.5,60.01804177,
,,,,78,1,69,,,,,,,,,,0,-4.6,left,,,,0,1,0.566675814,left,,,,,2,185,2019_Apr_05_1601,Flow_exo_post,3.0.5,60.01804177,
,,,,79,1,69,,,,,,,,,,0,4.6,right,,,,0,0,1.216920517,left,,,,,2,185,2019_Apr_05_1601,Flow_exo_post,3.0.5,60.01804177,
,,,,80,1,70,,,,,,,,,,0,-4.6,left,,,,0,1,0.685585759,left,,,,,2,185,2019_Apr_05_1601,Flow_exo_post,3.0.5,60.01804177,
,,,,81,1,70,,,,,,,,,,0,-4.6,left,,,,0,1,0.550147345,left,,,,,2,185,2019_Apr_05_1601,Flow_exo_post,3.0.5,60.01804177,
,,,,82,1,70,,,,,,,,,,0,4.6,right,,,,0,0,1.083485495,left,,,,,2,185,2019_Apr_05_1601,Flow_exo_post,3.0.5,60.01804177,
,,,,83,1,71,,,,,,,,,,90,4.6,right,,,,0,0,0.550427103,left,,,,,2,185,2019_Apr_05_1601,Flow_exo_post,3.0.5,60.01804177,
,,,,84,1,72,,,,,,,,,,0,4.6,right,,,,180,1,0.783914876,right,,,,,2,185,2019_Apr_05_1601,Flow_exo_post,3.0.5,60.01804177,
,,,,85,1,72,,,,,,,,,,90,4.6,right,,,,0,0,1.417024565,left,,,,,2,185,2019_Apr_05_1601,Flow_exo_post,3.0.5,60.01804177,
,,,,86,1,73,,,,,,,,,,90,4.6,right,,,,180,1,0.634082779,right,,,,,2,185,2019_Apr_05_1601,Flow_exo_post,3.0.5,60.01804177,
,,,,87,1,73,,,,,,,,,,90,4.6,right,,,,180,0,0.767038287,left,,,,,2,185,2019_Apr_05_1601,Flow_exo_post,3.0.5,60.01804177,
,,,,88,1,74,,,,,,,,,,0,-4.6,left,,,,180,1,1.051237768,left,,,,,2,185,2019_Apr_05_1601,Flow_exo_post,3.0.5,60.01804177,
,,,,89,1,74,,,,,,,,,,0,4.6,right,,,,0,1,0.983376016,right,,,,,2,185,2019_Apr_05_1601,Flow_exo_post,3.0.5,60.01804177,
,,,,90,1,74,,,,,,,,,,90,-4.6,left,,,,0,1,1.519436102,left,,,,,2,185,2019_Apr_05_1601,Flow_exo_post,3.0.5,60.01804177,
,,,,,,,,,,,,,,,,,,,,,,,,,,space,5.730671291,,,2,185,2019_Apr_05_1601,Flow_exo_post,3.0.5,60.01804177,
My state (body feelings, emotions and thoughts) during the task on the computer was similar to the state I had during my music performance.,,,,,,,0,0,0,0,,,,,,,,,,,,,,,,,,5,9.068,2,185,2019_Apr_05_1601,Flow_exo_post,3.0.5,60.01804177
I was not concerned with how others might be evaluating me.,,,,,,,,,,,0,0,0,14,,,,,,,,,,,,,,1,3.833,2,185,2019_Apr_05_1601,Flow_exo_post,3.0.5,60.01804177,
I had total concentration.,,,,,,,,,,,0,1,1,5,,,,,,,,,,,,,,1,2.062,2,185,2019_Apr_05_1601,Flow_exo_post,3.0.5,60.01804177,
I felt as though I had everything under control.,,,,,,,,,,,0,2,2,12,,,,,,,,,,,,,,2,3.64,2,185,2019_Apr_05_1601,Flow_exo_post,3.0.5,60.01804177,
Time seemed to alter (either slows down or speeds up).,,,,,,,,,,,0,3,3,23,,,,,,,,,,,,,,5,1.824,2,185,2019_Apr_05_1601,Flow_exo_post,3.0.5,60.01804177,
I knew what I want to achieve.,,,,,,,,,,,0,4,4,1,,,,,,,,,,,,,,2,5.434,2,185,2019_Apr_05_1601,Flow_exo_post,3.0.5,60.01804177,
The challenge and my skills were at an equally high level.,,,,,,,,,,,0,5,5,10,,,,,,,,,,,,,,2,2.515,2,185,2019_Apr_05_1601,Flow_exo_post,3.0.5,60.01804177,
I was challenged, but I believe my skills will allow me to meet that challenge.,,,,,,,,,,,0,6,6,9,,,,,,,,,,,,,,3,5.622,2,185,2019_Apr_05_1601,Flow_exo_post,3.0.5,60.01804177
My goals were clearly defined. ,,,,,,,,,,,0,7,7,2,,,,,,,,,,,,,,2,2.667,2,185,2019_Apr_05_1601,Flow_exo_post,3.0.5,60.01804177,
I performed automatically without having to think about it.,,,,,,,,,,,0,8,8,25,,,,,,,,,,,,,,2,3.952,2,185,2019_Apr_05_1601,Flow_exo_post,3.0.5,60.01804177,
I did things spontaneously without having to think.,,,,,,,,,,,0,9,9,22,,,,,,,,,,,,,,2,7.176,2,185,2019_Apr_05_1601,Flow_exo_post,3.0.5,60.01804177,
I had a good idea while I was performing about how well I was doing.,,,,,,,,,,,0,10,10,8,,,,,,,,,,,,,,3,5.176,2,185,2019_Apr_05_1601,Flow_exo_post,3.0.5,60.01804177,
I was not worried about what others might be thinking of me.,,,,,,,,,,,0,11,11,16,,,,,,,,,,,,,,2,5.168,2,185,2019_Apr_05_1601,Flow_exo_post,3.0.5,60.01804177,
It was no effort to keep my mind on what was happening.,,,,,,,,,,,0,12,12,4,,,,,,,,,,,,,,4,6.041,2,185,2019_Apr_05_1601,Flow_exo_post,3.0.5,60.01804177,
I was not concerned with how I was presenting myself.,,,,,,,,,,,0,13,13,15,,,,,,,,,,,,,,2,3.855,2,185,2019_Apr_05_1601,Flow_exo_post,3.0.5,60.01804177,
The way time passed seemed to be different from normal.,,,,,,,,,,,0,14,14,24,,,,,,,,,,,,,,3,4.059,2,185,2019_Apr_05_1601,Flow_exo_post,3.0.5,60.01804177,
Things just seemed to happen automatically.,,,,,,,,,,,0,15,15,21,,,,,,,,,,,,,,4,1.235,2,185,2019_Apr_05_1601,Flow_exo_post,3.0.5,60.01804177,
I felt just the right amount of challenge. ,,,,,,,,,,,0,16,16,11,,,,,,,,,,,,,,2,4.703,2,185,2019_Apr_05_1601,Flow_exo_post,3.0.5,60.01804177,
The experience was extremely rewarding.,,,,,,,,,,,0,17,17,19,,,,,,,,,,,,,,4,5.547,2,185,2019_Apr_05_1601,Flow_exo_post,3.0.5,60.01804177,
My attention was focused entirely on what I was doing.,,,,,,,,,,,0,18,18,3,,,,,,,,,,,,,,2,12.358,2,185,2019_Apr_05_1601,Flow_exo_post,3.0.5,60.01804177,
I had no difficulty concentrating.,,,,,,,,,,,0,19,19,6,,,,,,,,,,,,,,2,2.558,2,185,2019_Apr_05_1601,Flow_exo_post,3.0.5,60.01804177,
I really enjoyed the experience.,,,,,,,,,,,0,20,20,17,,,,,,,,,,,,,,5,1.614,2,185,2019_Apr_05_1601,Flow_exo_post,3.0.5,60.01804177,
It was really clear to me how my performance was going.,,,,,,,,,,,0,21,21,7,,,,,,,,,,,,,,3,3.507,2,185,2019_Apr_05_1601,Flow_exo_post,3.0.5,60.01804177,
The experience left me feeling great.,,,,,,,,,,,0,22,22,18,,,,,,,,,,,,,,4,3.172,2,185,2019_Apr_05_1601,Flow_exo_post,3.0.5,60.01804177,
I felt that I had everything under control.,,,,,,,,,,,0,23,23,13,,,,,,,,,,,,,,2,1.656,2,185,2019_Apr_05_1601,Flow_exo_post,3.0.5,60.01804177,
I had a strong sense of what I wanted to accomplish.,,,,,,,,,,,0,24,24,0,,,,,,,,,,,,,,2,2.62,2,185,2019_Apr_05_1601,Flow_exo_post,3.0.5,60.01804177,
I lost my normal awareness of time.,,,,,,,,,,,0,25,25,20,,,,,,,,,,,,,,4,1.958,2,185,2019_Apr_05_1601,Flow_exo_post,3.0.5,60.01804177,
