Questions,Stair.thisTrialN,Stair.stepSize,Stair.intensity,Stair3.thisTrialN,Stair3.stepSize,Stair3.intensity,controlQ.thisRepN,controlQ.thisTrialN,controlQ.thisN,controlQ.thisIndex,Qs.thisRepN,Qs.thisTrialN,Qs.thisN,Qs.thisIndex,cueExoPos,targetXOri,targetXPos,CorrectAns,Stair.response,keyPress_2.rt,keyPress_2.rl,cueOri,Stair3.response,keyPress.rt,keyPress.rl,key_start.keys,key_start.rt,Quest_Ans.response,Quest_Ans.rt,Session,Participant,date,expName,psychopyVersion,frameRate,
,0,1,81,,,,,,,,,,,,4.6,90,-4.6,left,1,0.45089519,left,,,,,,,,,3,19,2016_Jan_09_1739,Flow_exo_post,3.0.5,60.13318309,
,1,1,80,,,,,,,,,,,,4.6,0,-4.6,left,1,0.434212729,left,,,,,,,,,3,19,2016_Jan_09_1739,Flow_exo_post,3.0.5,60.13318309,
,2,1,79,,,,,,,,,,,,-4.6,0,-4.6,left,1,0.400983404,left,,,,,,,,,3,19,2016_Jan_09_1739,Flow_exo_post,3.0.5,60.13318309,
,3,1,78,,,,,,,,,,,,-4.6,0,4.6,right,1,0.367701781,right,,,,,,,,,3,19,2016_Jan_09_1739,Flow_exo_post,3.0.5,60.13318309,
,4,1,77,,,,,,,,,,,,4.6,0,-4.6,left,1,0.400969873,left,,,,,,,,,3,19,2016_Jan_09_1739,Flow_exo_post,3.0.5,60.13318309,
,5,1,76,,,,,,,,,,,,4.6,0,-4.6,left,1,0.400956757,left,,,,,,,,,3,19,2016_Jan_09_1739,Flow_exo_post,3.0.5,60.13318309,
,6,1,75,,,,,,,,,,,,4.6,0,-4.6,left,0,0.234667807,right,,,,,,,,,3,19,2016_Jan_09_1739,Flow_exo_post,3.0.5,60.13318309,
,7,1,76,,,,,,,,,,,,-4.6,0,4.6,right,1,0.432894853,right,,,,,,,,,3,19,2016_Jan_09_1739,Flow_exo_post,3.0.5,60.13318309,
,8,1,76,,,,,,,,,,,,4.6,0,-4.6,left,1,0.384309832,left,,,,,,,,,3,19,2016_Jan_09_1739,Flow_exo_post,3.0.5,60.13318309,
,9,1,76,,,,,,,,,,,,4.6,0,-4.6,left,1,0.349801337,left,,,,,,,,,3,19,2016_Jan_09_1739,Flow_exo_post,3.0.5,60.13318309,
,10,1,75,,,,,,,,,,,,4.6,0,-4.6,left,1,0.334426907,left,,,,,,,,,3,19,2016_Jan_09_1739,Flow_exo_post,3.0.5,60.13318309,
,11,1,75,,,,,,,,,,,,4.6,90,-4.6,left,1,0.301223138,left,,,,,,,,,3,19,2016_Jan_09_1739,Flow_exo_post,3.0.5,60.13318309,
,12,1,75,,,,,,,,,,,,4.6,0,-4.6,left,1,0.367431886,left,,,,,,,,,3,19,2016_Jan_09_1739,Flow_exo_post,3.0.5,60.13318309,
,13,1,74,,,,,,,,,,,,-4.6,90,-4.6,left,1,0.317635783,left,,,,,,,,,3,19,2016_Jan_09_1739,Flow_exo_post,3.0.5,60.13318309,
,14,1,74,,,,,,,,,,,,-4.6,90,4.6,right,1,0.433954076,right,,,,,,,,,3,19,2016_Jan_09_1739,Flow_exo_post,3.0.5,60.13318309,
,15,1,74,,,,,,,,,,,,4.6,90,-4.6,left,1,0.400932827,left,,,,,,,,,3,19,2016_Jan_09_1739,Flow_exo_post,3.0.5,60.13318309,
,16,1,73,,,,,,,,,,,,-4.6,90,4.6,right,1,0.517346672,right,,,,,,,,,3,19,2016_Jan_09_1739,Flow_exo_post,3.0.5,60.13318309,
,17,1,73,,,,,,,,,,,,-4.6,0,-4.6,left,1,0.484064744,left,,,,,,,,,3,19,2016_Jan_09_1739,Flow_exo_post,3.0.5,60.13318309,
,18,1,73,,,,,,,,,,,,-4.6,90,4.6,right,1,0.400970888,right,,,,,,,,,3,19,2016_Jan_09_1739,Flow_exo_post,3.0.5,60.13318309,
,19,1,72,,,,,,,,,,,,-4.6,90,4.6,right,1,0.399662174,right,,,,,,,,,3,19,2016_Jan_09_1739,Flow_exo_post,3.0.5,60.13318309,
,20,1,72,,,,,,,,,,,,4.6,0,4.6,right,1,0.334355781,right,,,,,,,,,3,19,2016_Jan_09_1739,Flow_exo_post,3.0.5,60.13318309,
,21,1,72,,,,,,,,,,,,4.6,0,-4.6,left,1,0.433891161,left,,,,,,,,,3,19,2016_Jan_09_1739,Flow_exo_post,3.0.5,60.13318309,
,22,1,71,,,,,,,,,,,,-4.6,0,4.6,right,1,0.384192726,right,,,,,,,,,3,19,2016_Jan_09_1739,Flow_exo_post,3.0.5,60.13318309,
,23,1,71,,,,,,,,,,,,4.6,90,4.6,right,1,0.450813908,right,,,,,,,,,3,19,2016_Jan_09_1739,Flow_exo_post,3.0.5,60.13318309,
,24,1,71,,,,,,,,,,,,-4.6,90,-4.6,left,1,0.667215672,left,,,,,,,,,3,19,2016_Jan_09_1739,Flow_exo_post,3.0.5,60.13318309,
,25,1,70,,,,,,,,,,,,4.6,90,4.6,right,1,0.450549918,right,,,,,,,,,3,19,2016_Jan_09_1739,Flow_exo_post,3.0.5,60.13318309,
,26,1,70,,,,,,,,,,,,-4.6,0,-4.6,left,0,0.33410432,right,,,,,,,,,3,19,2016_Jan_09_1739,Flow_exo_post,3.0.5,60.13318309,
,27,1,71,,,,,,,,,,,,-4.6,90,-4.6,left,0,0.666981089,right,,,,,,,,,3,19,2016_Jan_09_1739,Flow_exo_post,3.0.5,60.13318309,
,28,1,72,,,,,,,,,,,,4.6,0,-4.6,left,1,0.483874173,left,,,,,,,,,3,19,2016_Jan_09_1739,Flow_exo_post,3.0.5,60.13318309,
,29,1,72,,,,,,,,,,,,-4.6,90,-4.6,left,1,0.50070789,left,,,,,,,,,3,19,2016_Jan_09_1739,Flow_exo_post,3.0.5,60.13318309,
,30,1,72,,,,,,,,,,,,4.6,0,-4.6,left,1,0.533668346,left,,,,,,,,,3,19,2016_Jan_09_1739,Flow_exo_post,3.0.5,60.13318309,
,31,1,71,,,,,,,,,,,,-4.6,0,-4.6,left,1,0.484212706,left,,,,,,,,,3,19,2016_Jan_09_1739,Flow_exo_post,3.0.5,60.13318309,
,32,1,71,,,,,,,,,,,,-4.6,90,4.6,right,0,0.982934269,left,,,,,,,,,3,19,2016_Jan_09_1739,Flow_exo_post,3.0.5,60.13318309,
,33,1,72,,,,,,,,,,,,-4.6,90,-4.6,left,1,0.284330384,left,,,,,,,,,3,19,2016_Jan_09_1739,Flow_exo_post,3.0.5,60.13318309,
,34,1,72,,,,,,,,,,,,-4.6,90,-4.6,left,1,0.301191529,left,,,,,,,,,3,19,2016_Jan_09_1739,Flow_exo_post,3.0.5,60.13318309,
,35,1,72,,,,,,,,,,,,-4.6,0,-4.6,left,1,0.450528551,left,,,,,,,,,3,19,2016_Jan_09_1739,Flow_exo_post,3.0.5,60.13318309,
,36,1,71,,,,,,,,,,,,-4.6,0,4.6,right,1,0.733232699,right,,,,,,,,,3,19,2016_Jan_09_1739,Flow_exo_post,3.0.5,60.13318309,
,37,1,71,,,,,,,,,,,,4.6,90,-4.6,left,0,0.65020018,right,,,,,,,,,3,19,2016_Jan_09_1739,Flow_exo_post,3.0.5,60.13318309,
,38,1,72,,,,,,,,,,,,4.6,0,4.6,right,1,0.268132975,right,,,,,,,,,3,19,2016_Jan_09_1739,Flow_exo_post,3.0.5,60.13318309,
,39,1,72,,,,,,,,,,,,4.6,90,4.6,right,1,0.38431746,right,,,,,,,,,3,19,2016_Jan_09_1739,Flow_exo_post,3.0.5,60.13318309,
,40,1,72,,,,,,,,,,,,-4.6,0,4.6,right,1,0.400941925,right,,,,,,,,,3,19,2016_Jan_09_1739,Flow_exo_post,3.0.5,60.13318309,
,41,1,71,,,,,,,,,,,,-4.6,90,4.6,right,1,0.367468431,right,,,,,,,,,3,19,2016_Jan_09_1739,Flow_exo_post,3.0.5,60.13318309,
,42,1,71,,,,,,,,,,,,-4.6,90,4.6,right,1,0.417669917,right,,,,,,,,,3,19,2016_Jan_09_1739,Flow_exo_post,3.0.5,60.13318309,
,43,1,71,,,,,,,,,,,,4.6,90,4.6,right,1,0.400924709,right,,,,,,,,,3,19,2016_Jan_09_1739,Flow_exo_post,3.0.5,60.13318309,
,44,1,70,,,,,,,,,,,,4.6,90,-4.6,left,0,0.251292455,right,,,,,,,,,3,19,2016_Jan_09_1739,Flow_exo_post,3.0.5,60.13318309,
,45,1,71,,,,,,,,,,,,-4.6,0,4.6,right,1,0.650318664,right,,,,,,,,,3,19,2016_Jan_09_1739,Flow_exo_post,3.0.5,60.13318309,
,46,1,71,,,,,,,,,,,,-4.6,0,-4.6,left,1,0.334368282,left,,,,,,,,,3,19,2016_Jan_09_1739,Flow_exo_post,3.0.5,60.13318309,
,47,1,71,,,,,,,,,,,,-4.6,0,-4.6,left,1,0.284438946,left,,,,,,,,,3,19,2016_Jan_09_1739,Flow_exo_post,3.0.5,60.13318309,
,48,1,70,,,,,,,,,,,,4.6,90,4.6,right,1,0.301370832,right,,,,,,,,,3,19,2016_Jan_09_1739,Flow_exo_post,3.0.5,60.13318309,
,49,1,70,,,,,,,,,,,,-4.6,0,4.6,right,1,0.251304214,right,,,,,,,,,3,19,2016_Jan_09_1739,Flow_exo_post,3.0.5,60.13318309,
,50,1,70,,,,,,,,,,,,-4.6,90,-4.6,left,0,0.36767668,right,,,,,,,,,3,19,2016_Jan_09_1739,Flow_exo_post,3.0.5,60.13318309,
,51,1,71,,,,,,,,,,,,4.6,0,-4.6,left,0,0.334434816,right,,,,,,,,,3,19,2016_Jan_09_1739,Flow_exo_post,3.0.5,60.13318309,
,52,1,72,,,,,,,,,,,,4.6,90,4.6,right,1,0.351062949,right,,,,,,,,,3,19,2016_Jan_09_1739,Flow_exo_post,3.0.5,60.13318309,
,53,1,72,,,,,,,,,,,,4.6,0,4.6,right,1,0.30118751,right,,,,,,,,,3,19,2016_Jan_09_1739,Flow_exo_post,3.0.5,60.13318309,
,54,1,72,,,,,,,,,,,,4.6,0,-4.6,left,0,0.46748322,right,,,,,,,,,3,19,2016_Jan_09_1739,Flow_exo_post,3.0.5,60.13318309,
,55,1,73,,,,,,,,,,,,4.6,0,4.6,right,1,0.284571024,right,,,,,,,,,3,19,2016_Jan_09_1739,Flow_exo_post,3.0.5,60.13318309,
,56,1,73,,,,,,,,,,,,-4.6,90,4.6,right,1,0.301180302,right,,,,,,,,,3,19,2016_Jan_09_1739,Flow_exo_post,3.0.5,60.13318309,
,57,1,73,,,,,,,,,,,,-4.6,0,4.6,right,1,0.26793155,right,,,,,,,,,3,19,2016_Jan_09_1739,Flow_exo_post,3.0.5,60.13318309,
,58,1,72,,,,,,,,,,,,4.6,0,-4.6,left,0,0.250009478,right,,,,,,,,,3,19,2016_Jan_09_1739,Flow_exo_post,3.0.5,60.13318309,
,59,1,73,,,,,,,,,,,,4.6,0,4.6,right,1,0.351078703,right,,,,,,,,,3,19,2016_Jan_09_1739,Flow_exo_post,3.0.5,60.13318309,
,60,1,73,,,,,,,,,,,,4.6,90,-4.6,left,0,0.683610908,right,,,,,,,,,3,19,2016_Jan_09_1739,Flow_exo_post,3.0.5,60.13318309,
,61,1,74,,,,,,,,,,,,-4.6,0,4.6,right,1,0.301355516,right,,,,,,,,,3,19,2016_Jan_09_1739,Flow_exo_post,3.0.5,60.13318309,
,62,1,74,,,,,,,,,,,,4.6,90,4.6,right,1,0.201302992,right,,,,,,,,,3,19,2016_Jan_09_1739,Flow_exo_post,3.0.5,60.13318309,
,63,1,74,,,,,,,,,,,,4.6,90,4.6,right,1,0.400936944,right,,,,,,,,,3,19,2016_Jan_09_1739,Flow_exo_post,3.0.5,60.13318309,
,,,,0,1,81,,,,,,,,,,90,-4.6,left,,,,180,1,1.265248615,left,,,,,3,19,2016_Jan_09_1739,Flow_exo_post,3.0.5,60.13318309,
,,,,1,1,80,,,,,,,,,,90,-4.6,left,,,,0,1,0.500717542,left,,,,,3,19,2016_Jan_09_1739,Flow_exo_post,3.0.5,60.13318309,
,,,,2,1,79,,,,,,,,,,0,-4.6,left,,,,0,1,0.533995046,left,,,,,3,19,2016_Jan_09_1739,Flow_exo_post,3.0.5,60.13318309,
,,,,3,1,78,,,,,,,,,,90,-4.6,left,,,,180,1,0.367684816,left,,,,,3,19,2016_Jan_09_1739,Flow_exo_post,3.0.5,60.13318309,
,,,,4,1,77,,,,,,,,,,0,4.6,right,,,,180,1,0.384203526,right,,,,,3,19,2016_Jan_09_1739,Flow_exo_post,3.0.5,60.13318309,
,,,,5,1,76,,,,,,,,,,90,4.6,right,,,,0,1,0.500427508,right,,,,,3,19,2016_Jan_09_1739,Flow_exo_post,3.0.5,60.13318309,
,,,,6,1,75,,,,,,,,,,0,4.6,right,,,,0,1,0.783404516,right,,,,,3,19,2016_Jan_09_1739,Flow_exo_post,3.0.5,60.13318309,
,,,,7,1,74,,,,,,,,,,90,-4.6,left,,,,180,1,0.417573007,left,,,,,3,19,2016_Jan_09_1739,Flow_exo_post,3.0.5,60.13318309,
,,,,8,1,73,,,,,,,,,,90,4.6,right,,,,180,1,0.517344334,right,,,,,3,19,2016_Jan_09_1739,Flow_exo_post,3.0.5,60.13318309,
,,,,9,1,72,,,,,,,,,,90,4.6,right,,,,180,1,0.350906298,right,,,,,3,19,2016_Jan_09_1739,Flow_exo_post,3.0.5,60.13318309,
,,,,10,1,71,,,,,,,,,,0,4.6,right,,,,180,1,0.333150514,right,,,,,3,19,2016_Jan_09_1739,Flow_exo_post,3.0.5,60.13318309,
,,,,11,1,70,,,,,,,,,,0,-4.6,left,,,,0,0,0.582566267,right,,,,,3,19,2016_Jan_09_1739,Flow_exo_post,3.0.5,60.13318309,
,,,,12,1,71,,,,,,,,,,90,-4.6,left,,,,180,0,0.450843722,right,,,,,3,19,2016_Jan_09_1739,Flow_exo_post,3.0.5,60.13318309,
,,,,13,1,72,,,,,,,,,,0,-4.6,left,,,,180,0,0.40072675,right,,,,,3,19,2016_Jan_09_1739,Flow_exo_post,3.0.5,60.13318309,
,,,,14,1,73,,,,,,,,,,90,-4.6,left,,,,180,1,0.949625691,left,,,,,3,19,2016_Jan_09_1739,Flow_exo_post,3.0.5,60.13318309,
,,,,15,1,73,,,,,,,,,,0,4.6,right,,,,180,1,0.516053869,right,,,,,3,19,2016_Jan_09_1739,Flow_exo_post,3.0.5,60.13318309,
,,,,16,1,73,,,,,,,,,,0,4.6,right,,,,180,1,0.567112713,right,,,,,3,19,2016_Jan_09_1739,Flow_exo_post,3.0.5,60.13318309,
,,,,17,1,72,,,,,,,,,,90,4.6,right,,,,0,0,0.750156244,left,,,,,3,19,2016_Jan_09_1739,Flow_exo_post,3.0.5,60.13318309,
,,,,18,1,73,,,,,,,,,,90,-4.6,left,,,,180,0,0.467952016,right,,,,,3,19,2016_Jan_09_1739,Flow_exo_post,3.0.5,60.13318309,
,,,,19,1,74,,,,,,,,,,90,-4.6,left,,,,0,1,1.082695353,left,,,,,3,19,2016_Jan_09_1739,Flow_exo_post,3.0.5,60.13318309,
,,,,20,1,74,,,,,,,,,,90,-4.6,left,,,,180,1,1.314151053,left,,,,,3,19,2016_Jan_09_1739,Flow_exo_post,3.0.5,60.13318309,
,,,,21,1,74,,,,,,,,,,0,-4.6,left,,,,180,1,0.56722588,left,,,,,3,19,2016_Jan_09_1739,Flow_exo_post,3.0.5,60.13318309,
,,,,22,1,73,,,,,,,,,,90,-4.6,left,,,,0,1,0.500465679,left,,,,,3,19,2016_Jan_09_1739,Flow_exo_post,3.0.5,60.13318309,
,,,,23,1,73,,,,,,,,,,0,4.6,right,,,,0,1,0.467452663,right,,,,,3,19,2016_Jan_09_1739,Flow_exo_post,3.0.5,60.13318309,
,,,,24,1,73,,,,,,,,,,90,-4.6,left,,,,180,1,0.450510923,left,,,,,3,19,2016_Jan_09_1739,Flow_exo_post,3.0.5,60.13318309,
,,,,25,1,72,,,,,,,,,,90,-4.6,left,,,,0,0,0.617107473,right,,,,,3,19,2016_Jan_09_1739,Flow_exo_post,3.0.5,60.13318309,
,,,,26,1,73,,,,,,,,,,90,4.6,right,,,,180,1,0.450725939,right,,,,,3,19,2016_Jan_09_1739,Flow_exo_post,3.0.5,60.13318309,
,,,,27,1,73,,,,,,,,,,90,4.6,right,,,,0,1,0.467047541,right,,,,,3,19,2016_Jan_09_1739,Flow_exo_post,3.0.5,60.13318309,
,,,,28,1,73,,,,,,,,,,90,4.6,right,,,,0,1,0.467467731,right,,,,,3,19,2016_Jan_09_1739,Flow_exo_post,3.0.5,60.13318309,
,,,,29,1,72,,,,,,,,,,90,-4.6,left,,,,180,1,0.617129889,left,,,,,3,19,2016_Jan_09_1739,Flow_exo_post,3.0.5,60.13318309,
,,,,30,1,72,,,,,,,,,,0,-4.6,left,,,,0,1,0.417609757,left,,,,,3,19,2016_Jan_09_1739,Flow_exo_post,3.0.5,60.13318309,
,,,,31,1,72,,,,,,,,,,0,4.6,right,,,,0,1,0.4172798,right,,,,,3,19,2016_Jan_09_1739,Flow_exo_post,3.0.5,60.13318309,
,,,,32,1,71,,,,,,,,,,0,-4.6,left,,,,180,1,0.29990956,left,,,,,3,19,2016_Jan_09_1739,Flow_exo_post,3.0.5,60.13318309,
,,,,33,1,71,,,,,,,,,,0,4.6,right,,,,180,1,0.517345869,right,,,,,3,19,2016_Jan_09_1739,Flow_exo_post,3.0.5,60.13318309,
,,,,34,1,71,,,,,,,,,,0,-4.6,left,,,,180,0,0.367579612,right,,,,,3,19,2016_Jan_09_1739,Flow_exo_post,3.0.5,60.13318309,
,,,,35,1,72,,,,,,,,,,0,4.6,right,,,,180,1,0.384320281,right,,,,,3,19,2016_Jan_09_1739,Flow_exo_post,3.0.5,60.13318309,
,,,,36,1,72,,,,,,,,,,90,4.6,right,,,,180,1,0.334197551,right,,,,,3,19,2016_Jan_09_1739,Flow_exo_post,3.0.5,60.13318309,
,,,,37,1,72,,,,,,,,,,0,4.6,right,,,,180,1,0.517304454,right,,,,,3,19,2016_Jan_09_1739,Flow_exo_post,3.0.5,60.13318309,
,,,,38,1,71,,,,,,,,,,0,4.6,right,,,,0,1,0.384327257,right,,,,,3,19,2016_Jan_09_1739,Flow_exo_post,3.0.5,60.13318309,
,,,,39,1,71,,,,,,,,,,0,4.6,right,,,,180,1,0.549312686,right,,,,,3,19,2016_Jan_09_1739,Flow_exo_post,3.0.5,60.13318309,
,,,,40,1,71,,,,,,,,,,0,4.6,right,,,,180,1,0.500622908,right,,,,,3,19,2016_Jan_09_1739,Flow_exo_post,3.0.5,60.13318309,
,,,,41,1,70,,,,,,,,,,90,4.6,right,,,,180,1,0.334464376,right,,,,,3,19,2016_Jan_09_1739,Flow_exo_post,3.0.5,60.13318309,
,,,,42,1,70,,,,,,,,,,90,-4.6,left,,,,0,0,0.484248732,right,,,,,3,19,2016_Jan_09_1739,Flow_exo_post,3.0.5,60.13318309,
,,,,43,1,71,,,,,,,,,,90,4.6,right,,,,0,1,0.334413949,right,,,,,3,19,2016_Jan_09_1739,Flow_exo_post,3.0.5,60.13318309,
,,,,44,1,71,,,,,,,,,,90,-4.6,left,,,,180,0,0.33446542,right,,,,,3,19,2016_Jan_09_1739,Flow_exo_post,3.0.5,60.13318309,
,,,,45,1,72,,,,,,,,,,90,4.6,right,,,,180,1,0.317825461,right,,,,,3,19,2016_Jan_09_1739,Flow_exo_post,3.0.5,60.13318309,
,,,,46,1,72,,,,,,,,,,90,4.6,right,,,,0,1,0.2846209,right,,,,,3,19,2016_Jan_09_1739,Flow_exo_post,3.0.5,60.13318309,
,,,,47,1,72,,,,,,,,,,90,4.6,right,,,,180,1,0.383037392,right,,,,,3,19,2016_Jan_09_1739,Flow_exo_post,3.0.5,60.13318309,
,,,,48,1,71,,,,,,,,,,90,-4.6,left,,,,180,0,0.55048302,right,,,,,3,19,2016_Jan_09_1739,Flow_exo_post,3.0.5,60.13318309,
,,,,49,1,72,,,,,,,,,,90,4.6,right,,,,180,1,0.351067641,right,,,,,3,19,2016_Jan_09_1739,Flow_exo_post,3.0.5,60.13318309,
,,,,50,1,72,,,,,,,,,,90,4.6,right,,,,0,1,0.400859748,right,,,,,3,19,2016_Jan_09_1739,Flow_exo_post,3.0.5,60.13318309,
,,,,51,1,72,,,,,,,,,,90,-4.6,left,,,,0,1,0.467136122,left,,,,,3,19,2016_Jan_09_1739,Flow_exo_post,3.0.5,60.13318309,
,,,,52,1,71,,,,,,,,,,0,-4.6,left,,,,180,0,0.616818257,right,,,,,3,19,2016_Jan_09_1739,Flow_exo_post,3.0.5,60.13318309,
,,,,53,1,72,,,,,,,,,,0,4.6,right,,,,0,1,0.36738083,right,,,,,3,19,2016_Jan_09_1739,Flow_exo_post,3.0.5,60.13318309,
,,,,54,1,72,,,,,,,,,,90,-4.6,left,,,,180,0,0.317538658,right,,,,,3,19,2016_Jan_09_1739,Flow_exo_post,3.0.5,60.13318309,
,,,,55,1,73,,,,,,,,,,90,-4.6,left,,,,0,0,0.417581571,right,,,,,3,19,2016_Jan_09_1739,Flow_exo_post,3.0.5,60.13318309,
,,,,56,1,74,,,,,,,,,,0,4.6,right,,,,0,1,0.317538053,right,,,,,3,19,2016_Jan_09_1739,Flow_exo_post,3.0.5,60.13318309,
,,,,57,1,74,,,,,,,,,,0,-4.6,left,,,,180,0,0.350809645,right,,,,,3,19,2016_Jan_09_1739,Flow_exo_post,3.0.5,60.13318309,
,,,,58,1,75,,,,,,,,,,0,-4.6,left,,,,180,0,0.965005988,right,,,,,3,19,2016_Jan_09_1739,Flow_exo_post,3.0.5,60.13318309,
,,,,59,1,76,,,,,,,,,,0,4.6,right,,,,180,1,0.366401927,right,,,,,3,19,2016_Jan_09_1739,Flow_exo_post,3.0.5,60.13318309,
,,,,60,1,76,,,,,,,,,,90,4.6,right,,,,0,1,0.367591055,right,,,,,3,19,2016_Jan_09_1739,Flow_exo_post,3.0.5,60.13318309,
,,,,61,1,76,,,,,,,,,,0,-4.6,left,,,,0,0,0.500482827,right,,,,,3,19,2016_Jan_09_1739,Flow_exo_post,3.0.5,60.13318309,
,,,,62,1,77,,,,,,,,,,0,-4.6,left,,,,0,1,0.33440041,left,,,,,3,19,2016_Jan_09_1739,Flow_exo_post,3.0.5,60.13318309,
,,,,63,1,77,,,,,,,,,,0,-4.6,left,,,,0,1,0.46747817,left,,,,,3,19,2016_Jan_09_1739,Flow_exo_post,3.0.5,60.13318309,
,,,,64,1,77,,,,,,,,,,0,4.6,right,,,,0,1,0.483943905,right,,,,,3,19,2016_Jan_09_1739,Flow_exo_post,3.0.5,60.13318309,
,,,,,,,,,,,,,,,,,,,,,,,,,,space,4.356531513,,,3,19,2016_Jan_09_1739,Flow_exo_post,3.0.5,60.13318309,
My state (body feelings, emotions and thoughts) during the task on the computer was similar to the state I had during my music performance.,,,,,,,0,0,0,0,,,,,,,,,,,,,,,,,,2,4.679,3,19,2016_Jan_09_1739,Flow_exo_post,3.0.5,60.13318309
Things just seemed to happen automatically.,,,,,,,,,,,0,0,0,21,,,,,,,,,,,,,,1,3.793,3,19,2016_Jan_09_1739,Flow_exo_post,3.0.5,60.13318309,
I did things spontaneously without having to think.,,,,,,,,,,,0,1,1,22,,,,,,,,,,,,,,2,4.228,3,19,2016_Jan_09_1739,Flow_exo_post,3.0.5,60.13318309,
I was not concerned with how I was presenting myself.,,,,,,,,,,,0,2,2,15,,,,,,,,,,,,,,2,3.698,3,19,2016_Jan_09_1739,Flow_exo_post,3.0.5,60.13318309,
I knew what I want to achieve.,,,,,,,,,,,0,3,3,1,,,,,,,,,,,,,,4,1.971,3,19,2016_Jan_09_1739,Flow_exo_post,3.0.5,60.13318309,
I felt as though I had everything under control.,,,,,,,,,,,0,4,4,12,,,,,,,,,,,,,,4,3.184,3,19,2016_Jan_09_1739,Flow_exo_post,3.0.5,60.13318309,
I had total concentration.,,,,,,,,,,,0,5,5,5,,,,,,,,,,,,,,4,3.036,3,19,2016_Jan_09_1739,Flow_exo_post,3.0.5,60.13318309,
I had no difficulty concentrating.,,,,,,,,,,,0,6,6,6,,,,,,,,,,,,,,3,2.703,3,19,2016_Jan_09_1739,Flow_exo_post,3.0.5,60.13318309,
My goals were clearly defined. ,,,,,,,,,,,0,7,7,2,,,,,,,,,,,,,,4,2.604,3,19,2016_Jan_09_1739,Flow_exo_post,3.0.5,60.13318309,
The experience left me feeling great.,,,,,,,,,,,0,8,8,18,,,,,,,,,,,,,,4,2.27,3,19,2016_Jan_09_1739,Flow_exo_post,3.0.5,60.13318309,
The way time passed seemed to be different from normal.,,,,,,,,,,,0,9,9,24,,,,,,,,,,,,,,4,2.735,3,19,2016_Jan_09_1739,Flow_exo_post,3.0.5,60.13318309,
I felt just the right amount of challenge. ,,,,,,,,,,,0,10,10,11,,,,,,,,,,,,,,4,1.104,3,19,2016_Jan_09_1739,Flow_exo_post,3.0.5,60.13318309,
I was not concerned with how others might be evaluating me.,,,,,,,,,,,0,11,11,14,,,,,,,,,,,,,,4,3.047,3,19,2016_Jan_09_1739,Flow_exo_post,3.0.5,60.13318309,
The challenge and my skills were at an equally high level.,,,,,,,,,,,0,12,12,10,,,,,,,,,,,,,,4,2.999,3,19,2016_Jan_09_1739,Flow_exo_post,3.0.5,60.13318309,
I really enjoyed the experience.,,,,,,,,,,,0,13,13,17,,,,,,,,,,,,,,4,2.686,3,19,2016_Jan_09_1739,Flow_exo_post,3.0.5,60.13318309,
My attention was focused entirely on what I was doing.,,,,,,,,,,,0,14,14,3,,,,,,,,,,,,,,4,2.783,3,19,2016_Jan_09_1739,Flow_exo_post,3.0.5,60.13318309,
I lost my normal awareness of time.,,,,,,,,,,,0,15,15,20,,,,,,,,,,,,,,2,5.911,3,19,2016_Jan_09_1739,Flow_exo_post,3.0.5,60.13318309,
It was no effort to keep my mind on what was happening.,,,,,,,,,,,0,16,16,4,,,,,,,,,,,,,,3,13.99,3,19,2016_Jan_09_1739,Flow_exo_post,3.0.5,60.13318309,
I was challenged, but I believe my skills will allow me to meet that challenge.,,,,,,,,,,,0,17,17,9,,,,,,,,,,,,,,4,4.177,3,19,2016_Jan_09_1739,Flow_exo_post,3.0.5,60.13318309
I had a good idea while I was performing about how well I was doing.,,,,,,,,,,,0,18,18,8,,,,,,,,,,,,,,4,1.186,3,19,2016_Jan_09_1739,Flow_exo_post,3.0.5,60.13318309,
I had a strong sense of what I wanted to accomplish.,,,,,,,,,,,0,19,19,0,,,,,,,,,,,,,,4,2.202,3,19,2016_Jan_09_1739,Flow_exo_post,3.0.5,60.13318309,
The experience was extremely rewarding.,,,,,,,,,,,0,20,20,19,,,,,,,,,,,,,,4,1.838,3,19,2016_Jan_09_1739,Flow_exo_post,3.0.5,60.13318309,
It was really clear to me how my performance was going.,,,,,,,,,,,0,21,21,7,,,,,,,,,,,,,,4,2.5,3,19,2016_Jan_09_1739,Flow_exo_post,3.0.5,60.13318309,
I performed automatically without having to think about it.,,,,,,,,,,,0,22,22,25,,,,,,,,,,,,,,4,2.368,3,19,2016_Jan_09_1739,Flow_exo_post,3.0.5,60.13318309,
Time seemed to alter (either slows down or speeds up).,,,,,,,,,,,0,23,23,23,,,,,,,,,,,,,,2,2.837,3,19,2016_Jan_09_1739,Flow_exo_post,3.0.5,60.13318309,
I was not worried about what others might be thinking of me.,,,,,,,,,,,0,24,24,16,,,,,,,,,,,,,,4,1.686,3,19,2016_Jan_09_1739,Flow_exo_post,3.0.5,60.13318309,
I felt that I had everything under control.,,,,,,,,,,,0,25,25,13,,,,,,,,,,,,,,4,1.571,3,19,2016_Jan_09_1739,Flow_exo_post,3.0.5,60.13318309,
