Questions,Stair.thisTrialN,Stair.stepSize,Stair.intensity,Stair2.thisTrialN,Stair2.stepSize,Stair2.intensity,controlQ.thisRepN,controlQ.thisTrialN,controlQ.thisN,controlQ.thisIndex,Qs.thisRepN,Qs.thisTrialN,Qs.thisN,Qs.thisIndex,cueExoPos,targetXOri,targetXPos,CorrectAns,Stair.response,keyPress_2.rt,keyPress_2.rl,cueOri,Stair2.response,keyPress.rt,keyPress.rl,key_start.keys,key_start.rt,Quest_Ans.response,Quest_Ans.rt,Session,Participant,date,expName,psychopyVersion,frameRate,
,0,1,81,,,,,,,,,,,,-4.6,0,-4.6,left,1,0.470391776,left,,,,,,,,,2,54,2019_Mar_29_1535,Flow_exo_post,3.0.5,60.00289226,
,1,1,80,,,,,,,,,,,,4.6,90,4.6,right,1,0.336391835,right,,,,,,,,,2,54,2019_Mar_29_1535,Flow_exo_post,3.0.5,60.00289226,
,2,1,79,,,,,,,,,,,,4.6,90,-4.6,left,1,0.318793948,left,,,,,,,,,2,54,2019_Mar_29_1535,Flow_exo_post,3.0.5,60.00289226,
,3,1,78,,,,,,,,,,,,-4.6,0,4.6,right,1,0.302660388,right,,,,,,,,,2,54,2019_Mar_29_1535,Flow_exo_post,3.0.5,60.00289226,
,4,1,77,,,,,,,,,,,,4.6,0,4.6,right,1,0.219437409,right,,,,,,,,,2,54,2019_Mar_29_1535,Flow_exo_post,3.0.5,60.00289226,
,5,1,76,,,,,,,,,,,,4.6,0,-4.6,left,0,0.21846403,right,,,,,,,,,2,54,2019_Mar_29_1535,Flow_exo_post,3.0.5,60.00289226,
,6,1,77,,,,,,,,,,,,-4.6,90,-4.6,left,1,0.369239895,left,,,,,,,,,2,54,2019_Mar_29_1535,Flow_exo_post,3.0.5,60.00289226,
,7,1,77,,,,,,,,,,,,-4.6,90,-4.6,left,1,0.368423992,left,,,,,,,,,2,54,2019_Mar_29_1535,Flow_exo_post,3.0.5,60.00289226,
,8,1,77,,,,,,,,,,,,4.6,90,-4.6,left,1,0.401877526,left,,,,,,,,,2,54,2019_Mar_29_1535,Flow_exo_post,3.0.5,60.00289226,
,9,1,76,,,,,,,,,,,,4.6,90,4.6,right,1,0.351908278,right,,,,,,,,,2,54,2019_Mar_29_1535,Flow_exo_post,3.0.5,60.00289226,
,10,1,76,,,,,,,,,,,,4.6,90,-4.6,left,1,0.385724123,left,,,,,,,,,2,54,2019_Mar_29_1535,Flow_exo_post,3.0.5,60.00289226,
,11,1,76,,,,,,,,,,,,4.6,0,4.6,right,1,0.31660197,right,,,,,,,,,2,54,2019_Mar_29_1535,Flow_exo_post,3.0.5,60.00289226,
,12,1,75,,,,,,,,,,,,-4.6,90,4.6,right,1,0.319536633,right,,,,,,,,,2,54,2019_Mar_29_1535,Flow_exo_post,3.0.5,60.00289226,
,13,1,75,,,,,,,,,,,,4.6,90,-4.6,left,1,0.435429461,left,,,,,,,,,2,54,2019_Mar_29_1535,Flow_exo_post,3.0.5,60.00289226,
,14,1,75,,,,,,,,,,,,-4.6,90,-4.6,left,1,0.300853193,left,,,,,,,,,2,54,2019_Mar_29_1535,Flow_exo_post,3.0.5,60.00289226,
,15,1,74,,,,,,,,,,,,-4.6,0,-4.6,left,1,0.219852513,left,,,,,,,,,2,54,2019_Mar_29_1535,Flow_exo_post,3.0.5,60.00289226,
,16,1,74,,,,,,,,,,,,4.6,90,4.6,right,1,0.270410616,right,,,,,,,,,2,54,2019_Mar_29_1535,Flow_exo_post,3.0.5,60.00289226,
,17,1,74,,,,,,,,,,,,-4.6,90,-4.6,left,1,0.20200489,left,,,,,,,,,2,54,2019_Mar_29_1535,Flow_exo_post,3.0.5,60.00289226,
,18,1,73,,,,,,,,,,,,-4.6,90,-4.6,left,1,0.685294594,left,,,,,,,,,2,54,2019_Mar_29_1535,Flow_exo_post,3.0.5,60.00289226,
,19,1,73,,,,,,,,,,,,-4.6,0,4.6,right,1,0.401713764,right,,,,,,,,,2,54,2019_Mar_29_1535,Flow_exo_post,3.0.5,60.00289226,
,20,1,73,,,,,,,,,,,,-4.6,0,4.6,right,1,0.40231511,right,,,,,,,,,2,54,2019_Mar_29_1535,Flow_exo_post,3.0.5,60.00289226,
,21,1,72,,,,,,,,,,,,4.6,0,-4.6,left,1,0.421812199,left,,,,,,,,,2,54,2019_Mar_29_1535,Flow_exo_post,3.0.5,60.00289226,
,22,1,72,,,,,,,,,,,,-4.6,90,-4.6,left,1,0.419797537,left,,,,,,,,,2,54,2019_Mar_29_1535,Flow_exo_post,3.0.5,60.00289226,
,23,1,72,,,,,,,,,,,,4.6,0,-4.6,left,1,0.48238642,left,,,,,,,,,2,54,2019_Mar_29_1535,Flow_exo_post,3.0.5,60.00289226,
,24,1,71,,,,,,,,,,,,4.6,0,-4.6,left,1,0.384078984,left,,,,,,,,,2,54,2019_Mar_29_1535,Flow_exo_post,3.0.5,60.00289226,
,25,1,71,,,,,,,,,,,,-4.6,90,-4.6,left,1,0.270074875,left,,,,,,,,,2,54,2019_Mar_29_1535,Flow_exo_post,3.0.5,60.00289226,
,26,1,71,,,,,,,,,,,,-4.6,0,-4.6,left,1,0.269003324,left,,,,,,,,,2,54,2019_Mar_29_1535,Flow_exo_post,3.0.5,60.00289226,
,27,1,70,,,,,,,,,,,,4.6,90,-4.6,left,1,0.436371391,left,,,,,,,,,2,54,2019_Mar_29_1535,Flow_exo_post,3.0.5,60.00289226,
,28,1,70,,,,,,,,,,,,-4.6,0,-4.6,left,1,0.300082909,left,,,,,,,,,2,54,2019_Mar_29_1535,Flow_exo_post,3.0.5,60.00289226,
,29,1,70,,,,,,,,,,,,4.6,90,4.6,right,1,0.850639844,right,,,,,,,,,2,54,2019_Mar_29_1535,Flow_exo_post,3.0.5,60.00289226,
,30,1,69,,,,,,,,,,,,4.6,90,-4.6,left,1,0.552842029,left,,,,,,,,,2,54,2019_Mar_29_1535,Flow_exo_post,3.0.5,60.00289226,
,31,1,69,,,,,,,,,,,,4.6,0,-4.6,left,1,0.586194566,left,,,,,,,,,2,54,2019_Mar_29_1535,Flow_exo_post,3.0.5,60.00289226,
,32,1,69,,,,,,,,,,,,4.6,90,4.6,right,1,0.286654303,right,,,,,,,,,2,54,2019_Mar_29_1535,Flow_exo_post,3.0.5,60.00289226,
,33,1,68,,,,,,,,,,,,4.6,90,-4.6,left,1,0.503243832,left,,,,,,,,,2,54,2019_Mar_29_1535,Flow_exo_post,3.0.5,60.00289226,
,34,1,68,,,,,,,,,,,,4.6,0,4.6,right,1,0.26712827,right,,,,,,,,,2,54,2019_Mar_29_1535,Flow_exo_post,3.0.5,60.00289226,
,35,1,68,,,,,,,,,,,,4.6,90,4.6,right,1,0.251441348,right,,,,,,,,,2,54,2019_Mar_29_1535,Flow_exo_post,3.0.5,60.00289226,
,36,1,67,,,,,,,,,,,,-4.6,90,-4.6,left,1,0.300703849,left,,,,,,,,,2,54,2019_Mar_29_1535,Flow_exo_post,3.0.5,60.00289226,
,37,1,67,,,,,,,,,,,,-4.6,90,4.6,right,1,0.568602374,right,,,,,,,,,2,54,2019_Mar_29_1535,Flow_exo_post,3.0.5,60.00289226,
,38,1,67,,,,,,,,,,,,-4.6,0,4.6,right,0,0.335955309,left,,,,,,,,,2,54,2019_Mar_29_1535,Flow_exo_post,3.0.5,60.00289226,
,39,1,68,,,,,,,,,,,,4.6,90,4.6,right,1,0.236868893,right,,,,,,,,,2,54,2019_Mar_29_1535,Flow_exo_post,3.0.5,60.00289226,
,40,1,68,,,,,,,,,,,,4.6,0,4.6,right,1,0.285711734,right,,,,,,,,,2,54,2019_Mar_29_1535,Flow_exo_post,3.0.5,60.00289226,
,41,1,68,,,,,,,,,,,,-4.6,0,-4.6,left,1,0.286570684,left,,,,,,,,,2,54,2019_Mar_29_1535,Flow_exo_post,3.0.5,60.00289226,
,42,1,67,,,,,,,,,,,,-4.6,0,-4.6,left,1,0.233759097,left,,,,,,,,,2,54,2019_Mar_29_1535,Flow_exo_post,3.0.5,60.00289226,
,43,1,67,,,,,,,,,,,,4.6,90,4.6,right,1,0.236504699,right,,,,,,,,,2,54,2019_Mar_29_1535,Flow_exo_post,3.0.5,60.00289226,
,44,1,67,,,,,,,,,,,,-4.6,90,-4.6,left,1,0.235265223,left,,,,,,,,,2,54,2019_Mar_29_1535,Flow_exo_post,3.0.5,60.00289226,
,45,1,66,,,,,,,,,,,,4.6,90,4.6,right,1,0.250099835,right,,,,,,,,,2,54,2019_Mar_29_1535,Flow_exo_post,3.0.5,60.00289226,
,46,1,66,,,,,,,,,,,,4.6,90,-4.6,left,0,0.253035867,right,,,,,,,,,2,54,2019_Mar_29_1535,Flow_exo_post,3.0.5,60.00289226,
,47,1,67,,,,,,,,,,,,4.6,90,4.6,right,1,0.234119796,right,,,,,,,,,2,54,2019_Mar_29_1535,Flow_exo_post,3.0.5,60.00289226,
,48,1,67,,,,,,,,,,,,4.6,90,4.6,right,1,0.217350872,right,,,,,,,,,2,54,2019_Mar_29_1535,Flow_exo_post,3.0.5,60.00289226,
,49,1,67,,,,,,,,,,,,4.6,90,-4.6,left,1,0.28361637,left,,,,,,,,,2,54,2019_Mar_29_1535,Flow_exo_post,3.0.5,60.00289226,
,50,1,66,,,,,,,,,,,,4.6,0,4.6,right,1,0.269294489,right,,,,,,,,,2,54,2019_Mar_29_1535,Flow_exo_post,3.0.5,60.00289226,
,51,1,66,,,,,,,,,,,,4.6,0,-4.6,left,0,0.236067099,right,,,,,,,,,2,54,2019_Mar_29_1535,Flow_exo_post,3.0.5,60.00289226,
,52,1,67,,,,,,,,,,,,-4.6,90,4.6,right,0,0.353179828,left,,,,,,,,,2,54,2019_Mar_29_1535,Flow_exo_post,3.0.5,60.00289226,
,53,1,68,,,,,,,,,,,,4.6,90,-4.6,left,0,0.302962283,right,,,,,,,,,2,54,2019_Mar_29_1535,Flow_exo_post,3.0.5,60.00289226,
,54,1,69,,,,,,,,,,,,-4.6,0,4.6,right,0,0.283975489,left,,,,,,,,,2,54,2019_Mar_29_1535,Flow_exo_post,3.0.5,60.00289226,
,55,1,70,,,,,,,,,,,,4.6,0,-4.6,left,0,0.219377615,right,,,,,,,,,2,54,2019_Mar_29_1535,Flow_exo_post,3.0.5,60.00289226,
,56,1,71,,,,,,,,,,,,-4.6,90,4.6,right,1,1.183724869,right,,,,,,,,,2,54,2019_Mar_29_1535,Flow_exo_post,3.0.5,60.00289226,
,57,1,71,,,,,,,,,,,,-4.6,0,-4.6,left,1,0.318655017,left,,,,,,,,,2,54,2019_Mar_29_1535,Flow_exo_post,3.0.5,60.00289226,
,58,1,71,,,,,,,,,,,,4.6,90,4.6,right,1,0.369342959,right,,,,,,,,,2,54,2019_Mar_29_1535,Flow_exo_post,3.0.5,60.00289226,
,59,1,70,,,,,,,,,,,,-4.6,90,4.6,right,1,0.551481463,right,,,,,,,,,2,54,2019_Mar_29_1535,Flow_exo_post,3.0.5,60.00289226,
,60,1,70,,,,,,,,,,,,4.6,90,4.6,right,1,0.252984,right,,,,,,,,,2,54,2019_Mar_29_1535,Flow_exo_post,3.0.5,60.00289226,
,61,1,70,,,,,,,,,,,,-4.6,0,4.6,right,1,0.585713915,right,,,,,,,,,2,54,2019_Mar_29_1535,Flow_exo_post,3.0.5,60.00289226,
,62,1,69,,,,,,,,,,,,4.6,0,4.6,right,1,0.368710716,right,,,,,,,,,2,54,2019_Mar_29_1535,Flow_exo_post,3.0.5,60.00289226,
,63,1,69,,,,,,,,,,,,4.6,90,4.6,right,1,0.333898642,right,,,,,,,,,2,54,2019_Mar_29_1535,Flow_exo_post,3.0.5,60.00289226,
,64,1,69,,,,,,,,,,,,4.6,90,-4.6,left,0,0.503525458,right,,,,,,,,,2,54,2019_Mar_29_1535,Flow_exo_post,3.0.5,60.00289226,
,65,1,70,,,,,,,,,,,,4.6,0,4.6,right,1,0.30243377,right,,,,,,,,,2,54,2019_Mar_29_1535,Flow_exo_post,3.0.5,60.00289226,
,66,1,70,,,,,,,,,,,,-4.6,0,4.6,right,0,0.571457743,left,,,,,,,,,2,54,2019_Mar_29_1535,Flow_exo_post,3.0.5,60.00289226,
,67,1,71,,,,,,,,,,,,4.6,0,4.6,right,1,0.30042928,right,,,,,,,,,2,54,2019_Mar_29_1535,Flow_exo_post,3.0.5,60.00289226,
,68,1,71,,,,,,,,,,,,-4.6,90,4.6,right,1,0.4841755,right,,,,,,,,,2,54,2019_Mar_29_1535,Flow_exo_post,3.0.5,60.00289226,
,69,1,71,,,,,,,,,,,,4.6,0,4.6,right,1,0.319119379,right,,,,,,,,,2,54,2019_Mar_29_1535,Flow_exo_post,3.0.5,60.00289226,
,70,1,70,,,,,,,,,,,,4.6,0,-4.6,left,1,0.750378374,left,,,,,,,,,2,54,2019_Mar_29_1535,Flow_exo_post,3.0.5,60.00289226,
,71,1,70,,,,,,,,,,,,-4.6,90,4.6,right,0,0.436483635,left,,,,,,,,,2,54,2019_Mar_29_1535,Flow_exo_post,3.0.5,60.00289226,
,72,1,71,,,,,,,,,,,,-4.6,0,4.6,right,1,0.703122211,right,,,,,,,,,2,54,2019_Mar_29_1535,Flow_exo_post,3.0.5,60.00289226,
,73,1,71,,,,,,,,,,,,4.6,90,-4.6,left,1,0.536071432,left,,,,,,,,,2,54,2019_Mar_29_1535,Flow_exo_post,3.0.5,60.00289226,
,74,1,71,,,,,,,,,,,,4.6,0,4.6,right,1,0.43714887,right,,,,,,,,,2,54,2019_Mar_29_1535,Flow_exo_post,3.0.5,60.00289226,
,75,1,70,,,,,,,,,,,,-4.6,90,-4.6,left,1,0.420085774,left,,,,,,,,,2,54,2019_Mar_29_1535,Flow_exo_post,3.0.5,60.00289226,
,76,1,70,,,,,,,,,,,,-4.6,90,4.6,right,1,0.534124601,right,,,,,,,,,2,54,2019_Mar_29_1535,Flow_exo_post,3.0.5,60.00289226,
,77,1,70,,,,,,,,,,,,4.6,90,4.6,right,1,0.300808976,right,,,,,,,,,2,54,2019_Mar_29_1535,Flow_exo_post,3.0.5,60.00289226,
,78,1,69,,,,,,,,,,,,4.6,0,4.6,right,1,0.667428831,right,,,,,,,,,2,54,2019_Mar_29_1535,Flow_exo_post,3.0.5,60.00289226,
,79,1,69,,,,,,,,,,,,-4.6,0,4.6,right,1,0.483794208,right,,,,,,,,,2,54,2019_Mar_29_1535,Flow_exo_post,3.0.5,60.00289226,
,80,1,69,,,,,,,,,,,,-4.6,0,4.6,right,1,0.419769546,right,,,,,,,,,2,54,2019_Mar_29_1535,Flow_exo_post,3.0.5,60.00289226,
,81,1,68,,,,,,,,,,,,-4.6,90,4.6,right,1,0.50064655,right,,,,,,,,,2,54,2019_Mar_29_1535,Flow_exo_post,3.0.5,60.00289226,
,82,1,68,,,,,,,,,,,,4.6,90,4.6,right,1,0.352867377,right,,,,,,,,,2,54,2019_Mar_29_1535,Flow_exo_post,3.0.5,60.00289226,
,83,1,68,,,,,,,,,,,,4.6,90,4.6,right,1,0.402839404,right,,,,,,,,,2,54,2019_Mar_29_1535,Flow_exo_post,3.0.5,60.00289226,
,84,1,67,,,,,,,,,,,,4.6,0,-4.6,left,0,0.486882475,right,,,,,,,,,2,54,2019_Mar_29_1535,Flow_exo_post,3.0.5,60.00289226,
,85,1,68,,,,,,,,,,,,4.6,0,4.6,right,1,0.352232459,right,,,,,,,,,2,54,2019_Mar_29_1535,Flow_exo_post,3.0.5,60.00289226,
,86,1,68,,,,,,,,,,,,4.6,0,-4.6,left,0,0.302768534,right,,,,,,,,,2,54,2019_Mar_29_1535,Flow_exo_post,3.0.5,60.00289226,
,87,1,69,,,,,,,,,,,,4.6,90,4.6,right,1,0.436723781,right,,,,,,,,,2,54,2019_Mar_29_1535,Flow_exo_post,3.0.5,60.00289226,
,88,1,69,,,,,,,,,,,,-4.6,0,-4.6,left,1,0.335363191,left,,,,,,,,,2,54,2019_Mar_29_1535,Flow_exo_post,3.0.5,60.00289226,
,89,1,69,,,,,,,,,,,,4.6,0,4.6,right,0,0.235257195,left,,,,,,,,,2,54,2019_Mar_29_1535,Flow_exo_post,3.0.5,60.00289226,
,,,,0,1,81,,,,,,,,,,90,-4.6,left,,,,180,1,0.433825087,left,,,,,2,54,2019_Mar_29_1535,Flow_exo_post,3.0.5,60.00289226,
,,,,1,1,80,,,,,,,,,,0,4.6,right,,,,0,1,0.319729808,right,,,,,2,54,2019_Mar_29_1535,Flow_exo_post,3.0.5,60.00289226,
,,,,2,1,79,,,,,,,,,,0,-4.6,left,,,,0,1,0.402683715,left,,,,,2,54,2019_Mar_29_1535,Flow_exo_post,3.0.5,60.00289226,
,,,,3,1,78,,,,,,,,,,90,-4.6,left,,,,0,0,0.218814744,right,,,,,2,54,2019_Mar_29_1535,Flow_exo_post,3.0.5,60.00289226,
,,,,4,1,79,,,,,,,,,,90,4.6,right,,,,0,1,0.553077804,right,,,,,2,54,2019_Mar_29_1535,Flow_exo_post,3.0.5,60.00289226,
,,,,5,1,79,,,,,,,,,,0,-4.6,left,,,,180,0,1.095396567,right,,,,,2,54,2019_Mar_29_1535,Flow_exo_post,3.0.5,60.00289226,
,,,,6,1,80,,,,,,,,,,90,4.6,right,,,,0,1,0.334145777,right,,,,,2,54,2019_Mar_29_1535,Flow_exo_post,3.0.5,60.00289226,
,,,,7,1,80,,,,,,,,,,0,4.6,right,,,,0,1,0.369043852,right,,,,,2,54,2019_Mar_29_1535,Flow_exo_post,3.0.5,60.00289226,
,,,,8,1,80,,,,,,,,,,90,-4.6,left,,,,180,1,0.450478699,left,,,,,2,54,2019_Mar_29_1535,Flow_exo_post,3.0.5,60.00289226,
,,,,9,1,79,,,,,,,,,,90,4.6,right,,,,0,1,0.369850013,right,,,,,2,54,2019_Mar_29_1535,Flow_exo_post,3.0.5,60.00289226,
,,,,10,1,79,,,,,,,,,,90,-4.6,left,,,,0,1,0.4198917,left,,,,,2,54,2019_Mar_29_1535,Flow_exo_post,3.0.5,60.00289226,
,,,,11,1,79,,,,,,,,,,0,-4.6,left,,,,180,1,0.453278917,left,,,,,2,54,2019_Mar_29_1535,Flow_exo_post,3.0.5,60.00289226,
,,,,12,1,78,,,,,,,,,,90,-4.6,left,,,,180,1,0.303225228,left,,,,,2,54,2019_Mar_29_1535,Flow_exo_post,3.0.5,60.00289226,
,,,,13,1,78,,,,,,,,,,0,4.6,right,,,,0,1,0.319611369,right,,,,,2,54,2019_Mar_29_1535,Flow_exo_post,3.0.5,60.00289226,
,,,,14,1,78,,,,,,,,,,0,4.6,right,,,,0,1,0.302119308,right,,,,,2,54,2019_Mar_29_1535,Flow_exo_post,3.0.5,60.00289226,
,,,,15,1,77,,,,,,,,,,0,4.6,right,,,,180,0,0.26957409,left,,,,,2,54,2019_Mar_29_1535,Flow_exo_post,3.0.5,60.00289226,
,,,,16,1,78,,,,,,,,,,0,4.6,right,,,,180,1,1.095764506,right,,,,,2,54,2019_Mar_29_1535,Flow_exo_post,3.0.5,60.00289226,
,,,,17,1,78,,,,,,,,,,0,4.6,right,,,,180,1,1.098007561,right,,,,,2,54,2019_Mar_29_1535,Flow_exo_post,3.0.5,60.00289226,
,,,,18,1,78,,,,,,,,,,0,-4.6,left,,,,0,0,1.098437204,right,,,,,2,54,2019_Mar_29_1535,Flow_exo_post,3.0.5,60.00289226,
,,,,19,1,79,,,,,,,,,,90,4.6,right,,,,0,1,0.43609696,right,,,,,2,54,2019_Mar_29_1535,Flow_exo_post,3.0.5,60.00289226,
,,,,20,1,79,,,,,,,,,,90,4.6,right,,,,0,1,0.369889108,right,,,,,2,54,2019_Mar_29_1535,Flow_exo_post,3.0.5,60.00289226,
,,,,21,1,79,,,,,,,,,,90,4.6,right,,,,180,1,0.386247571,right,,,,,2,54,2019_Mar_29_1535,Flow_exo_post,3.0.5,60.00289226,
,,,,22,1,78,,,,,,,,,,0,-4.6,left,,,,180,1,0.403208437,left,,,,,2,54,2019_Mar_29_1535,Flow_exo_post,3.0.5,60.00289226,
,,,,23,1,78,,,,,,,,,,90,-4.6,left,,,,0,1,0.369402738,left,,,,,2,54,2019_Mar_29_1535,Flow_exo_post,3.0.5,60.00289226,
,,,,24,1,78,,,,,,,,,,0,-4.6,left,,,,180,1,0.368763807,left,,,,,2,54,2019_Mar_29_1535,Flow_exo_post,3.0.5,60.00289226,
,,,,25,1,77,,,,,,,,,,90,-4.6,left,,,,0,1,0.484868811,left,,,,,2,54,2019_Mar_29_1535,Flow_exo_post,3.0.5,60.00289226,
,,,,26,1,77,,,,,,,,,,0,-4.6,left,,,,180,1,0.350800506,left,,,,,2,54,2019_Mar_29_1535,Flow_exo_post,3.0.5,60.00289226,
,,,,27,1,77,,,,,,,,,,0,4.6,right,,,,0,1,0.319554011,right,,,,,2,54,2019_Mar_29_1535,Flow_exo_post,3.0.5,60.00289226,
,,,,28,1,76,,,,,,,,,,0,4.6,right,,,,0,1,0.334346525,right,,,,,2,54,2019_Mar_29_1535,Flow_exo_post,3.0.5,60.00289226,
,,,,29,1,76,,,,,,,,,,90,-4.6,left,,,,180,1,0.350512404,left,,,,,2,54,2019_Mar_29_1535,Flow_exo_post,3.0.5,60.00289226,
,,,,30,1,76,,,,,,,,,,0,4.6,right,,,,0,1,0.316842997,right,,,,,2,54,2019_Mar_29_1535,Flow_exo_post,3.0.5,60.00289226,
,,,,31,1,75,,,,,,,,,,0,-4.6,left,,,,0,1,0.386223993,left,,,,,2,54,2019_Mar_29_1535,Flow_exo_post,3.0.5,60.00289226,
,,,,32,1,75,,,,,,,,,,0,-4.6,left,,,,0,1,0.384004297,left,,,,,2,54,2019_Mar_29_1535,Flow_exo_post,3.0.5,60.00289226,
,,,,33,1,75,,,,,,,,,,0,-4.6,left,,,,180,1,0.317283884,left,,,,,2,54,2019_Mar_29_1535,Flow_exo_post,3.0.5,60.00289226,
,,,,34,1,74,,,,,,,,,,0,-4.6,left,,,,180,1,0.335374578,left,,,,,2,54,2019_Mar_29_1535,Flow_exo_post,3.0.5,60.00289226,
,,,,35,1,74,,,,,,,,,,90,-4.6,left,,,,0,1,0.350561239,left,,,,,2,54,2019_Mar_29_1535,Flow_exo_post,3.0.5,60.00289226,
,,,,36,1,74,,,,,,,,,,90,4.6,right,,,,0,1,0.353030555,right,,,,,2,54,2019_Mar_29_1535,Flow_exo_post,3.0.5,60.00289226,
,,,,37,1,73,,,,,,,,,,90,-4.6,left,,,,180,1,0.284180025,left,,,,,2,54,2019_Mar_29_1535,Flow_exo_post,3.0.5,60.00289226,
,,,,38,1,73,,,,,,,,,,0,-4.6,left,,,,180,1,0.252472272,left,,,,,2,54,2019_Mar_29_1535,Flow_exo_post,3.0.5,60.00289226,
,,,,39,1,73,,,,,,,,,,90,4.6,right,,,,0,1,0.253133774,right,,,,,2,54,2019_Mar_29_1535,Flow_exo_post,3.0.5,60.00289226,
,,,,40,1,72,,,,,,,,,,90,4.6,right,,,,0,1,0.253321627,right,,,,,2,54,2019_Mar_29_1535,Flow_exo_post,3.0.5,60.00289226,
,,,,41,1,72,,,,,,,,,,90,-4.6,left,,,,180,1,1.567328115,left,,,,,2,54,2019_Mar_29_1535,Flow_exo_post,3.0.5,60.00289226,
,,,,42,1,72,,,,,,,,,,90,-4.6,left,,,,0,1,0.402843014,left,,,,,2,54,2019_Mar_29_1535,Flow_exo_post,3.0.5,60.00289226,
,,,,43,1,71,,,,,,,,,,0,4.6,right,,,,0,1,0.252820638,right,,,,,2,54,2019_Mar_29_1535,Flow_exo_post,3.0.5,60.00289226,
,,,,44,1,71,,,,,,,,,,90,-4.6,left,,,,180,1,0.269466835,left,,,,,2,54,2019_Mar_29_1535,Flow_exo_post,3.0.5,60.00289226,
,,,,45,1,71,,,,,,,,,,0,-4.6,left,,,,180,1,0.319609126,left,,,,,2,54,2019_Mar_29_1535,Flow_exo_post,3.0.5,60.00289226,
,,,,46,1,70,,,,,,,,,,0,-4.6,left,,,,0,1,0.385898869,left,,,,,2,54,2019_Mar_29_1535,Flow_exo_post,3.0.5,60.00289226,
,,,,47,1,70,,,,,,,,,,90,4.6,right,,,,0,1,0.300528262,right,,,,,2,54,2019_Mar_29_1535,Flow_exo_post,3.0.5,60.00289226,
,,,,48,1,70,,,,,,,,,,0,-4.6,left,,,,0,1,0.319702037,left,,,,,2,54,2019_Mar_29_1535,Flow_exo_post,3.0.5,60.00289226,
,,,,49,1,69,,,,,,,,,,90,-4.6,left,,,,0,1,0.419611484,left,,,,,2,54,2019_Mar_29_1535,Flow_exo_post,3.0.5,60.00289226,
,,,,50,1,69,,,,,,,,,,90,-4.6,left,,,,0,1,0.353435358,left,,,,,2,54,2019_Mar_29_1535,Flow_exo_post,3.0.5,60.00289226,
,,,,51,1,69,,,,,,,,,,90,4.6,right,,,,0,1,0.303402162,right,,,,,2,54,2019_Mar_29_1535,Flow_exo_post,3.0.5,60.00289226,
,,,,52,1,68,,,,,,,,,,90,4.6,right,,,,180,1,0.333836446,right,,,,,2,54,2019_Mar_29_1535,Flow_exo_post,3.0.5,60.00289226,
,,,,53,1,68,,,,,,,,,,0,4.6,right,,,,180,1,0.353416236,right,,,,,2,54,2019_Mar_29_1535,Flow_exo_post,3.0.5,60.00289226,
,,,,54,1,68,,,,,,,,,,0,-4.6,left,,,,0,1,0.369295211,left,,,,,2,54,2019_Mar_29_1535,Flow_exo_post,3.0.5,60.00289226,
,,,,55,1,67,,,,,,,,,,90,-4.6,left,,,,180,0,0.683875275,right,,,,,2,54,2019_Mar_29_1535,Flow_exo_post,3.0.5,60.00289226,
,,,,56,1,68,,,,,,,,,,0,4.6,right,,,,0,1,0.503498427,right,,,,,2,54,2019_Mar_29_1535,Flow_exo_post,3.0.5,60.00289226,
,,,,57,1,68,,,,,,,,,,0,4.6,right,,,,0,1,1.095282577,right,,,,,2,54,2019_Mar_29_1535,Flow_exo_post,3.0.5,60.00289226,
,,,,58,1,68,,,,,,,,,,90,-4.6,left,,,,180,0,1.096728702,right,,,,,2,54,2019_Mar_29_1535,Flow_exo_post,3.0.5,60.00289226,
,,,,59,1,69,,,,,,,,,,90,4.6,right,,,,0,1,0.801519139,right,,,,,2,54,2019_Mar_29_1535,Flow_exo_post,3.0.5,60.00289226,
,,,,60,1,69,,,,,,,,,,90,4.6,right,,,,0,1,0.419231943,right,,,,,2,54,2019_Mar_29_1535,Flow_exo_post,3.0.5,60.00289226,
,,,,61,1,69,,,,,,,,,,90,-4.6,left,,,,0,0,0.534964872,right,,,,,2,54,2019_Mar_29_1535,Flow_exo_post,3.0.5,60.00289226,
,,,,62,1,70,,,,,,,,,,0,4.6,right,,,,0,1,0.566373549,right,,,,,2,54,2019_Mar_29_1535,Flow_exo_post,3.0.5,60.00289226,
,,,,63,1,70,,,,,,,,,,90,4.6,right,,,,180,1,0.536274345,right,,,,,2,54,2019_Mar_29_1535,Flow_exo_post,3.0.5,60.00289226,
,,,,64,1,70,,,,,,,,,,0,4.6,right,,,,180,1,0.603050563,right,,,,,2,54,2019_Mar_29_1535,Flow_exo_post,3.0.5,60.00289226,
,,,,65,1,69,,,,,,,,,,90,-4.6,left,,,,180,1,0.402982888,left,,,,,2,54,2019_Mar_29_1535,Flow_exo_post,3.0.5,60.00289226,
,,,,66,1,69,,,,,,,,,,90,-4.6,left,,,,0,1,0.467705132,left,,,,,2,54,2019_Mar_29_1535,Flow_exo_post,3.0.5,60.00289226,
,,,,67,1,69,,,,,,,,,,90,4.6,right,,,,180,1,0.500820676,right,,,,,2,54,2019_Mar_29_1535,Flow_exo_post,3.0.5,60.00289226,
,,,,68,1,68,,,,,,,,,,0,-4.6,left,,,,180,1,0.533870858,left,,,,,2,54,2019_Mar_29_1535,Flow_exo_post,3.0.5,60.00289226,
,,,,69,1,68,,,,,,,,,,90,-4.6,left,,,,180,0,0.486476082,right,,,,,2,54,2019_Mar_29_1535,Flow_exo_post,3.0.5,60.00289226,
,,,,70,1,69,,,,,,,,,,0,-4.6,left,,,,180,1,0.519694819,left,,,,,2,54,2019_Mar_29_1535,Flow_exo_post,3.0.5,60.00289226,
,,,,71,1,69,,,,,,,,,,0,-4.6,left,,,,180,0,1.153227621,right,,,,,2,54,2019_Mar_29_1535,Flow_exo_post,3.0.5,60.00289226,
,,,,72,1,70,,,,,,,,,,0,4.6,right,,,,180,1,0.452517496,right,,,,,2,54,2019_Mar_29_1535,Flow_exo_post,3.0.5,60.00289226,
,,,,73,1,70,,,,,,,,,,90,-4.6,left,,,,180,0,0.500890033,right,,,,,2,54,2019_Mar_29_1535,Flow_exo_post,3.0.5,60.00289226,
,,,,74,1,71,,,,,,,,,,0,-4.6,left,,,,0,1,0.402837728,left,,,,,2,54,2019_Mar_29_1535,Flow_exo_post,3.0.5,60.00289226,
,,,,75,1,71,,,,,,,,,,0,-4.6,left,,,,180,0,0.386399278,right,,,,,2,54,2019_Mar_29_1535,Flow_exo_post,3.0.5,60.00289226,
,,,,76,1,72,,,,,,,,,,90,4.6,right,,,,180,1,0.335982512,right,,,,,2,54,2019_Mar_29_1535,Flow_exo_post,3.0.5,60.00289226,
,,,,77,1,72,,,,,,,,,,90,-4.6,left,,,,0,1,0.470454494,left,,,,,2,54,2019_Mar_29_1535,Flow_exo_post,3.0.5,60.00289226,
,,,,78,1,72,,,,,,,,,,0,-4.6,left,,,,180,0,0.584086671,right,,,,,2,54,2019_Mar_29_1535,Flow_exo_post,3.0.5,60.00289226,
,,,,79,1,73,,,,,,,,,,90,4.6,right,,,,180,1,0.403277355,right,,,,,2,54,2019_Mar_29_1535,Flow_exo_post,3.0.5,60.00289226,
,,,,80,1,73,,,,,,,,,,0,4.6,right,,,,0,1,0.417445973,right,,,,,2,54,2019_Mar_29_1535,Flow_exo_post,3.0.5,60.00289226,
,,,,81,1,73,,,,,,,,,,90,-4.6,left,,,,180,1,0.486491577,left,,,,,2,54,2019_Mar_29_1535,Flow_exo_post,3.0.5,60.00289226,
,,,,82,1,72,,,,,,,,,,0,4.6,right,,,,180,1,0.369818464,right,,,,,2,54,2019_Mar_29_1535,Flow_exo_post,3.0.5,60.00289226,
,,,,83,1,72,,,,,,,,,,0,-4.6,left,,,,0,0,0.767432096,right,,,,,2,54,2019_Mar_29_1535,Flow_exo_post,3.0.5,60.00289226,
,,,,84,1,73,,,,,,,,,,90,4.6,right,,,,0,1,0.402660418,right,,,,,2,54,2019_Mar_29_1535,Flow_exo_post,3.0.5,60.00289226,
,,,,85,1,73,,,,,,,,,,0,-4.6,left,,,,180,1,0.467520403,left,,,,,2,54,2019_Mar_29_1535,Flow_exo_post,3.0.5,60.00289226,
,,,,86,1,73,,,,,,,,,,0,4.6,right,,,,180,1,0.386100691,right,,,,,2,54,2019_Mar_29_1535,Flow_exo_post,3.0.5,60.00289226,
,,,,87,1,72,,,,,,,,,,90,4.6,right,,,,0,1,0.433977588,right,,,,,2,54,2019_Mar_29_1535,Flow_exo_post,3.0.5,60.00289226,
,,,,88,1,72,,,,,,,,,,90,-4.6,left,,,,0,1,0.452171711,left,,,,,2,54,2019_Mar_29_1535,Flow_exo_post,3.0.5,60.00289226,
,,,,89,1,72,,,,,,,,,,90,4.6,right,,,,180,1,0.702833396,right,,,,,2,54,2019_Mar_29_1535,Flow_exo_post,3.0.5,60.00289226,
,,,,90,1,71,,,,,,,,,,90,4.6,right,,,,0,1,0.450698388,right,,,,,2,54,2019_Mar_29_1535,Flow_exo_post,3.0.5,60.00289226,
,,,,91,1,71,,,,,,,,,,90,-4.6,left,,,,180,1,0.52000236,left,,,,,2,54,2019_Mar_29_1535,Flow_exo_post,3.0.5,60.00289226,
,,,,92,1,71,,,,,,,,,,0,-4.6,left,,,,0,1,0.466580633,left,,,,,2,54,2019_Mar_29_1535,Flow_exo_post,3.0.5,60.00289226,
,,,,93,1,70,,,,,,,,,,0,4.6,right,,,,0,1,0.467259266,right,,,,,2,54,2019_Mar_29_1535,Flow_exo_post,3.0.5,60.00289226,
,,,,94,1,70,,,,,,,,,,0,4.6,right,,,,180,1,0.402772079,right,,,,,2,54,2019_Mar_29_1535,Flow_exo_post,3.0.5,60.00289226,
,,,,95,1,70,,,,,,,,,,90,4.6,right,,,,180,1,0.417280809,right,,,,,2,54,2019_Mar_29_1535,Flow_exo_post,3.0.5,60.00289226,
,,,,96,1,69,,,,,,,,,,90,-4.6,left,,,,180,1,0.402831753,left,,,,,2,54,2019_Mar_29_1535,Flow_exo_post,3.0.5,60.00289226,
,,,,97,1,69,,,,,,,,,,90,4.6,right,,,,0,1,0.520136405,right,,,,,2,54,2019_Mar_29_1535,Flow_exo_post,3.0.5,60.00289226,
,,,,98,1,69,,,,,,,,,,0,-4.6,left,,,,0,1,0.467273868,left,,,,,2,54,2019_Mar_29_1535,Flow_exo_post,3.0.5,60.00289226,
,,,,99,1,68,,,,,,,,,,90,-4.6,left,,,,180,0,0.486496827,right,,,,,2,54,2019_Mar_29_1535,Flow_exo_post,3.0.5,60.00289226,
,,,,100,1,69,,,,,,,,,,90,-4.6,left,,,,180,0,0.852527762,right,,,,,2,54,2019_Mar_29_1535,Flow_exo_post,3.0.5,60.00289226,
,,,,101,1,70,,,,,,,,,,0,-4.6,left,,,,180,1,0.636423452,left,,,,,2,54,2019_Mar_29_1535,Flow_exo_post,3.0.5,60.00289226,
,,,,102,1,70,,,,,,,,,,0,-4.6,left,,,,0,1,0.450589263,left,,,,,2,54,2019_Mar_29_1535,Flow_exo_post,3.0.5,60.00289226,
,,,,103,1,70,,,,,,,,,,0,4.6,right,,,,0,0,0.734053562,left,,,,,2,54,2019_Mar_29_1535,Flow_exo_post,3.0.5,60.00289226,
,,,,104,1,71,,,,,,,,,,0,-4.6,left,,,,0,1,0.553394804,left,,,,,2,54,2019_Mar_29_1535,Flow_exo_post,3.0.5,60.00289226,
,,,,105,1,71,,,,,,,,,,0,-4.6,left,,,,180,1,0.552111617,left,,,,,2,54,2019_Mar_29_1535,Flow_exo_post,3.0.5,60.00289226,
,,,,106,1,71,,,,,,,,,,0,4.6,right,,,,0,1,0.568751818,right,,,,,2,54,2019_Mar_29_1535,Flow_exo_post,3.0.5,60.00289226,
,,,,107,1,70,,,,,,,,,,90,4.6,right,,,,180,1,0.550613259,right,,,,,2,54,2019_Mar_29_1535,Flow_exo_post,3.0.5,60.00289226,
,,,,108,1,70,,,,,,,,,,0,4.6,right,,,,0,1,0.469878483,right,,,,,2,54,2019_Mar_29_1535,Flow_exo_post,3.0.5,60.00289226,
,,,,109,1,70,,,,,,,,,,0,4.6,right,,,,180,1,0.369161068,right,,,,,2,54,2019_Mar_29_1535,Flow_exo_post,3.0.5,60.00289226,
,,,,110,1,69,,,,,,,,,,0,4.6,right,,,,180,1,0.486498119,right,,,,,2,54,2019_Mar_29_1535,Flow_exo_post,3.0.5,60.00289226,
,,,,111,1,69,,,,,,,,,,90,4.6,right,,,,0,1,0.400838462,right,,,,,2,54,2019_Mar_29_1535,Flow_exo_post,3.0.5,60.00289226,
,,,,112,1,69,,,,,,,,,,0,4.6,right,,,,0,1,0.43640127,right,,,,,2,54,2019_Mar_29_1535,Flow_exo_post,3.0.5,60.00289226,
,,,,113,1,68,,,,,,,,,,0,-4.6,left,,,,180,1,0.486375447,left,,,,,2,54,2019_Mar_29_1535,Flow_exo_post,3.0.5,60.00289226,
,,,,114,1,68,,,,,,,,,,90,4.6,right,,,,0,1,0.68648194,right,,,,,2,54,2019_Mar_29_1535,Flow_exo_post,3.0.5,60.00289226,
,,,,115,1,68,,,,,,,,,,90,4.6,right,,,,0,1,0.5526207,right,,,,,2,54,2019_Mar_29_1535,Flow_exo_post,3.0.5,60.00289226,
,,,,116,1,67,,,,,,,,,,90,4.6,right,,,,180,1,0.717155999,right,,,,,2,54,2019_Mar_29_1535,Flow_exo_post,3.0.5,60.00289226,
,,,,117,1,67,,,,,,,,,,90,-4.6,left,,,,0,1,0.618497481,left,,,,,2,54,2019_Mar_29_1535,Flow_exo_post,3.0.5,60.00289226,
,,,,118,1,67,,,,,,,,,,90,4.6,right,,,,0,0,0.55063515,left,,,,,2,54,2019_Mar_29_1535,Flow_exo_post,3.0.5,60.00289226,
,,,,119,1,68,,,,,,,,,,90,-4.6,left,,,,0,1,0.735896762,left,,,,,2,54,2019_Mar_29_1535,Flow_exo_post,3.0.5,60.00289226,
,,,,120,1,68,,,,,,,,,,90,-4.6,left,,,,180,1,0.769593684,left,,,,,2,54,2019_Mar_29_1535,Flow_exo_post,3.0.5,60.00289226,
,,,,121,1,68,,,,,,,,,,90,4.6,right,,,,0,0,0.603194267,left,,,,,2,54,2019_Mar_29_1535,Flow_exo_post,3.0.5,60.00289226,
,,,,,,,,,,,,,,,,,,,,,,,,,,space,5.917406631,,,2,54,2019_Mar_29_1535,Flow_exo_post,3.0.5,60.00289226,
My state (body feelings, emotions and thoughts) during the task on the computer was similar to the state I had during my sport performance.,,,,,,,0,0,0,0,,,,,,,,,,,,,,,,,,4,7.983,2,54,2019_Mar_29_1535,Flow_exo_post,3.0.5,60.00289226
I lost my normal awareness of time.,,,,,,,,,,,0,0,0,20,,,,,,,,,,,,,,3,2.783,2,54,2019_Mar_29_1535,Flow_exo_post,3.0.5,60.00289226,
I was not concerned with how others might be evaluating me.,,,,,,,,,,,0,1,1,14,,,,,,,,,,,,,,4,2.881,2,54,2019_Mar_29_1535,Flow_exo_post,3.0.5,60.00289226,
I felt as though I had everything under control.,,,,,,,,,,,0,2,2,12,,,,,,,,,,,,,,4,4.17,2,54,2019_Mar_29_1535,Flow_exo_post,3.0.5,60.00289226,
I had a good idea while I was performing about how well I was doing.,,,,,,,,,,,0,3,3,8,,,,,,,,,,,,,,3,4.936,2,54,2019_Mar_29_1535,Flow_exo_post,3.0.5,60.00289226,
I knew what I want to achieve.,,,,,,,,,,,0,4,4,1,,,,,,,,,,,,,,3,1.858,2,54,2019_Mar_29_1535,Flow_exo_post,3.0.5,60.00289226,
My goals were clearly defined. ,,,,,,,,,,,0,5,5,2,,,,,,,,,,,,,,2,1.338,2,54,2019_Mar_29_1535,Flow_exo_post,3.0.5,60.00289226,
I was not concerned with how I was presenting myself.,,,,,,,,,,,0,6,6,15,,,,,,,,,,,,,,3,2.934,2,54,2019_Mar_29_1535,Flow_exo_post,3.0.5,60.00289226,
The experience was extremely rewarding.,,,,,,,,,,,0,7,7,19,,,,,,,,,,,,,,3,2.421,2,54,2019_Mar_29_1535,Flow_exo_post,3.0.5,60.00289226,
I was challenged, but I believe my skills will allow me to meet that challenge.,,,,,,,,,,,0,8,8,9,,,,,,,,,,,,,,4,5.081,2,54,2019_Mar_29_1535,Flow_exo_post,3.0.5,60.00289226
I performed automatically without having to think about it.,,,,,,,,,,,0,9,9,25,,,,,,,,,,,,,,3,2.88,2,54,2019_Mar_29_1535,Flow_exo_post,3.0.5,60.00289226,
I felt just the right amount of challenge. ,,,,,,,,,,,0,10,10,11,,,,,,,,,,,,,,4,1.755,2,54,2019_Mar_29_1535,Flow_exo_post,3.0.5,60.00289226,
Time seemed to alter (either slows down or speeds up).,,,,,,,,,,,0,11,11,23,,,,,,,,,,,,,,3,1.442,2,54,2019_Mar_29_1535,Flow_exo_post,3.0.5,60.00289226,
I really enjoyed the experience.,,,,,,,,,,,0,12,12,17,,,,,,,,,,,,,,2,1.324,2,54,2019_Mar_29_1535,Flow_exo_post,3.0.5,60.00289226,
The experience left me feeling great.,,,,,,,,,,,0,13,13,18,,,,,,,,,,,,,,4,1.918,2,54,2019_Mar_29_1535,Flow_exo_post,3.0.5,60.00289226,
I had total concentration.,,,,,,,,,,,0,14,14,5,,,,,,,,,,,,,,3,1.805,2,54,2019_Mar_29_1535,Flow_exo_post,3.0.5,60.00289226,
I did things spontaneously without having to think.,,,,,,,,,,,0,15,15,22,,,,,,,,,,,,,,3,2.279,2,54,2019_Mar_29_1535,Flow_exo_post,3.0.5,60.00289226,
The way time passed seemed to be different from normal.,,,,,,,,,,,0,16,16,24,,,,,,,,,,,,,,3,2.305,2,54,2019_Mar_29_1535,Flow_exo_post,3.0.5,60.00289226,
My attention was focused entirely on what I was doing.,,,,,,,,,,,0,17,17,3,,,,,,,,,,,,,,2,2.202,2,54,2019_Mar_29_1535,Flow_exo_post,3.0.5,60.00289226,
It was really clear to me how my performance was going.,,,,,,,,,,,0,18,18,7,,,,,,,,,,,,,,2,2.569,2,54,2019_Mar_29_1535,Flow_exo_post,3.0.5,60.00289226,
I was not worried about what others might be thinking of me.,,,,,,,,,,,0,19,19,16,,,,,,,,,,,,,,3,1.587,2,54,2019_Mar_29_1535,Flow_exo_post,3.0.5,60.00289226,
Things just seemed to happen automatically.,,,,,,,,,,,0,20,20,21,,,,,,,,,,,,,,4,6.891,2,54,2019_Mar_29_1535,Flow_exo_post,3.0.5,60.00289226,
It was no effort to keep my mind on what was happening.,,,,,,,,,,,0,21,21,4,,,,,,,,,,,,,,3,5.536,2,54,2019_Mar_29_1535,Flow_exo_post,3.0.5,60.00289226,
I had a strong sense of what I wanted to accomplish.,,,,,,,,,,,0,22,22,0,,,,,,,,,,,,,,3,1.903,2,54,2019_Mar_29_1535,Flow_exo_post,3.0.5,60.00289226,
I felt that I had everything under control.,,,,,,,,,,,0,23,23,13,,,,,,,,,,,,,,2,1.322,2,54,2019_Mar_29_1535,Flow_exo_post,3.0.5,60.00289226,
I had no difficulty concentrating.,,,,,,,,,,,0,24,24,6,,,,,,,,,,,,,,4,2.057,2,54,2019_Mar_29_1535,Flow_exo_post,3.0.5,60.00289226,
The challenge and my skills were at an equally high level.,,,,,,,,,,,0,25,25,10,,,,,,,,,,,,,,3,2.714,2,54,2019_Mar_29_1535,Flow_exo_post,3.0.5,60.00289226,
