Stair.thisTrialN,Stair.stepSize,Stair.intensity,Stair2.thisTrialN,Stair2.stepSize,Stair2.intensity,cueOri,targetXOri,targetXPos,CorrectAns,Stair.response,keyPress.rt,keyPress.rl,cueExoPos,Stair2.response,keyPress_2.rt,keyPress_2.rl,Time_pas_Ans.response,Time_pas_Ans.rt,Session,Participant,date,expName,psychopyVersion,frameRate,
0,1,81,,,,0,0,-4.6,left,1,1.2672581363376594,left,,,,,,,003,24,2019_Apr_10_1614,Flow_endo_pre,3.0.5,59.912243566670774,
1,1,80,,,,0,0,-4.6,left,1,0.8164707890009595,left,,,,,,,003,24,2019_Apr_10_1614,Flow_endo_pre,3.0.5,59.912243566670774,
2,1,79,,,,180,90,-4.6,left,1,1.417120771624468,left,,,,,,,003,24,2019_Apr_10_1614,Flow_endo_pre,3.0.5,59.912243566670774,
3,1,78,,,,0,0,4.6,right,1,1.116787558872602,right,,,,,,,003,24,2019_Apr_10_1614,Flow_endo_pre,3.0.5,59.912243566670774,
4,1,77,,,,180,0,-4.6,left,1,0.5836142695761737,left,,,,,,,003,24,2019_Apr_10_1614,Flow_endo_pre,3.0.5,59.912243566670774,
5,1,76,,,,0,90,-4.6,left,1,0.6005028855033743,left,,,,,,,003,24,2019_Apr_10_1614,Flow_endo_pre,3.0.5,59.912243566670774,
6,1,75,,,,180,0,-4.6,left,1,0.8001278989468119,left,,,,,,,003,24,2019_Apr_10_1614,Flow_endo_pre,3.0.5,59.912243566670774,
7,1,74,,,,0,90,-4.6,left,1,0.5337443460930444,left,,,,,,,003,24,2019_Apr_10_1614,Flow_endo_pre,3.0.5,59.912243566670774,
8,1,73,,,,0,90,-4.6,left,1,0.6172270726247007,left,,,,,,,003,24,2019_Apr_10_1614,Flow_endo_pre,3.0.5,59.912243566670774,
9,1,72,,,,180,0,-4.6,left,1,0.5668443090298751,left,,,,,,,003,24,2019_Apr_10_1614,Flow_endo_pre,3.0.5,59.912243566670774,
10,1,71,,,,0,90,-4.6,left,1,0.5666078870717683,left,,,,,,,003,24,2019_Apr_10_1614,Flow_endo_pre,3.0.5,59.912243566670774,
11,1,70,,,,180,90,-4.6,left,1,0.5000297749456877,left,,,,,,,003,24,2019_Apr_10_1614,Flow_endo_pre,3.0.5,59.912243566670774,
12,1,69,,,,180,0,4.6,right,1,0.6336961728966344,right,,,,,,,003,24,2019_Apr_10_1614,Flow_endo_pre,3.0.5,59.912243566670774,
13,1,68,,,,0,90,4.6,right,0,0.7842400767212894,left,,,,,,,003,24,2019_Apr_10_1614,Flow_endo_pre,3.0.5,59.912243566670774,
14,1,69,,,,180,90,-4.6,left,1,1.033883443974446,left,,,,,,,003,24,2019_Apr_10_1614,Flow_endo_pre,3.0.5,59.912243566670774,
15,1,69,,,,0,90,-4.6,left,1,0.6666534827354553,left,,,,,,,003,24,2019_Apr_10_1614,Flow_endo_pre,3.0.5,59.912243566670774,
16,1,69,,,,0,90,-4.6,left,1,0.7002209567626778,left,,,,,,,003,24,2019_Apr_10_1614,Flow_endo_pre,3.0.5,59.912243566670774,
17,1,68,,,,180,0,-4.6,left,1,1.1168151118072274,left,,,,,,,003,24,2019_Apr_10_1614,Flow_endo_pre,3.0.5,59.912243566670774,
18,1,68,,,,0,90,4.6,right,1,0.8834693055860043,right,,,,,,,003,24,2019_Apr_10_1614,Flow_endo_pre,3.0.5,59.912243566670774,
19,1,68,,,,180,0,4.6,right,1,1.01674640723013,right,,,,,,,003,24,2019_Apr_10_1614,Flow_endo_pre,3.0.5,59.912243566670774,
20,1,67,,,,0,0,-4.6,left,1,0.5334510406564732,left,,,,,,,003,24,2019_Apr_10_1614,Flow_endo_pre,3.0.5,59.912243566670774,
21,1,67,,,,0,90,4.6,right,0,1.3837848311313792,left,,,,,,,003,24,2019_Apr_10_1614,Flow_endo_pre,3.0.5,59.912243566670774,
22,1,68,,,,180,90,4.6,right,0,0.8504213377036649,left,,,,,,,003,24,2019_Apr_10_1614,Flow_endo_pre,3.0.5,59.912243566670774,
23,1,69,,,,180,0,4.6,right,0,1.3833479837921914,left,,,,,,,003,24,2019_Apr_10_1614,Flow_endo_pre,3.0.5,59.912243566670774,
24,1,70,,,,0,90,-4.6,left,1,0.6174541621376193,left,,,,,,,003,24,2019_Apr_10_1614,Flow_endo_pre,3.0.5,59.912243566670774,
25,1,70,,,,180,0,4.6,right,1,0.7333631379060535,right,,,,,,,003,24,2019_Apr_10_1614,Flow_endo_pre,3.0.5,59.912243566670774,
26,1,70,,,,0,90,4.6,right,1,0.7164607455106307,right,,,,,,,003,24,2019_Apr_10_1614,Flow_endo_pre,3.0.5,59.912243566670774,
27,1,69,,,,0,90,-4.6,left,1,0.9504660445627451,left,,,,,,,003,24,2019_Apr_10_1614,Flow_endo_pre,3.0.5,59.912243566670774,
28,1,69,,,,0,90,4.6,right,1,0.8834533071076294,right,,,,,,,003,24,2019_Apr_10_1614,Flow_endo_pre,3.0.5,59.912243566670774,
29,1,69,,,,180,0,4.6,right,1,0.6838718450771921,right,,,,,,,003,24,2019_Apr_10_1614,Flow_endo_pre,3.0.5,59.912243566670774,
30,1,68,,,,0,90,4.6,right,0,0.5332737241888026,left,,,,,,,003,24,2019_Apr_10_1614,Flow_endo_pre,3.0.5,59.912243566670774,
31,1,69,,,,180,90,-4.6,left,1,0.616710232893638,left,,,,,,,003,24,2019_Apr_10_1614,Flow_endo_pre,3.0.5,59.912243566670774,
32,1,69,,,,0,0,4.6,right,1,0.7832703911717545,right,,,,,,,003,24,2019_Apr_10_1614,Flow_endo_pre,3.0.5,59.912243566670774,
33,1,69,,,,0,90,4.6,right,1,0.684251808938825,right,,,,,,,003,24,2019_Apr_10_1614,Flow_endo_pre,3.0.5,59.912243566670774,
34,1,68,,,,180,0,-4.6,left,1,0.6332739908293661,left,,,,,,,003,24,2019_Apr_10_1614,Flow_endo_pre,3.0.5,59.912243566670774,
35,1,68,,,,0,0,-4.6,left,1,0.5336296903315088,left,,,,,,,003,24,2019_Apr_10_1614,Flow_endo_pre,3.0.5,59.912243566670774,
36,1,68,,,,180,0,-4.6,left,1,0.5835284999566284,left,,,,,,,003,24,2019_Apr_10_1614,Flow_endo_pre,3.0.5,59.912243566670774,
37,1,67,,,,0,0,-4.6,left,1,0.5167370747849418,left,,,,,,,003,24,2019_Apr_10_1614,Flow_endo_pre,3.0.5,59.912243566670774,
38,1,67,,,,0,0,4.6,right,0,0.967197786521865,left,,,,,,,003,24,2019_Apr_10_1614,Flow_endo_pre,3.0.5,59.912243566670774,
39,1,68,,,,180,0,4.6,right,1,1.117074642677835,right,,,,,,,003,24,2019_Apr_10_1614,Flow_endo_pre,3.0.5,59.912243566670774,
40,1,68,,,,180,90,-4.6,left,1,1.0174854480510476,left,,,,,,,003,24,2019_Apr_10_1614,Flow_endo_pre,3.0.5,59.912243566670774,
41,1,68,,,,180,0,4.6,right,1,0.667174766489552,right,,,,,,,003,24,2019_Apr_10_1614,Flow_endo_pre,3.0.5,59.912243566670774,
42,1,67,,,,0,0,4.6,right,1,1.0832165296278617,right,,,,,,,003,24,2019_Apr_10_1614,Flow_endo_pre,3.0.5,59.912243566670774,
43,1,67,,,,0,90,-4.6,left,0,1.3004834206876694,right,,,,,,,003,24,2019_Apr_10_1614,Flow_endo_pre,3.0.5,59.912243566670774,
44,1,68,,,,0,0,4.6,right,0,0.6842002582870919,left,,,,,,,003,24,2019_Apr_10_1614,Flow_endo_pre,3.0.5,59.912243566670774,
45,1,69,,,,0,90,-4.6,left,1,0.6169399888194675,left,,,,,,,003,24,2019_Apr_10_1614,Flow_endo_pre,3.0.5,59.912243566670774,
46,1,69,,,,180,0,-4.6,left,1,0.8002745516650975,left,,,,,,,003,24,2019_Apr_10_1614,Flow_endo_pre,3.0.5,59.912243566670774,
47,1,69,,,,180,90,-4.6,left,1,0.7334840152980178,left,,,,,,,003,24,2019_Apr_10_1614,Flow_endo_pre,3.0.5,59.912243566670774,
48,1,68,,,,0,0,-4.6,left,1,0.5999100529988937,left,,,,,,,003,24,2019_Apr_10_1614,Flow_endo_pre,3.0.5,59.912243566670774,
49,1,68,,,,180,90,-4.6,left,1,1.0833640711498447,left,,,,,,,003,24,2019_Apr_10_1614,Flow_endo_pre,3.0.5,59.912243566670774,
50,1,68,,,,0,90,4.6,right,1,0.8334438413412499,right,,,,,,,003,24,2019_Apr_10_1614,Flow_endo_pre,3.0.5,59.912243566670774,
51,1,67,,,,0,90,4.6,right,0,1.7330373911108836,left,,,,,,,003,24,2019_Apr_10_1614,Flow_endo_pre,3.0.5,59.912243566670774,
52,1,68,,,,180,0,-4.6,left,1,0.6504621338235665,left,,,,,,,003,24,2019_Apr_10_1614,Flow_endo_pre,3.0.5,59.912243566670774,
53,1,68,,,,180,0,4.6,right,1,0.8007318415047848,right,,,,,,,003,24,2019_Apr_10_1614,Flow_endo_pre,3.0.5,59.912243566670774,
54,1,68,,,,0,90,4.6,right,1,0.6498861886020677,right,,,,,,,003,24,2019_Apr_10_1614,Flow_endo_pre,3.0.5,59.912243566670774,
55,1,67,,,,0,90,-4.6,left,1,0.5332910558727235,left,,,,,,,003,24,2019_Apr_10_1614,Flow_endo_pre,3.0.5,59.912243566670774,
56,1,67,,,,180,0,4.6,right,0,0.683630090294173,left,,,,,,,003,24,2019_Apr_10_1614,Flow_endo_pre,3.0.5,59.912243566670774,
57,1,68,,,,0,0,-4.6,left,1,0.5502663302240762,left,,,,,,,003,24,2019_Apr_10_1614,Flow_endo_pre,3.0.5,59.912243566670774,
58,1,68,,,,180,0,-4.6,left,1,0.6338330487678832,left,,,,,,,003,24,2019_Apr_10_1614,Flow_endo_pre,3.0.5,59.912243566670774,
59,1,68,,,,0,0,4.6,right,1,0.7170558000261735,right,,,,,,,003,24,2019_Apr_10_1614,Flow_endo_pre,3.0.5,59.912243566670774,
,,,0,1,81,,90,4.6,right,,,,4.6,1,0.8504631115083612,right,,,003,24,2019_Apr_10_1614,Flow_endo_pre,3.0.5,59.912243566670774,
,,,1,1,80,,0,4.6,right,,,,4.6,1,0.583470283270799,right,,,003,24,2019_Apr_10_1614,Flow_endo_pre,3.0.5,59.912243566670774,
,,,2,1,79,,90,4.6,right,,,,4.6,1,0.7505668349767802,right,,,003,24,2019_Apr_10_1614,Flow_endo_pre,3.0.5,59.912243566670774,
,,,3,1,78,,90,4.6,right,,,,4.6,1,0.6338703785504549,right,,,003,24,2019_Apr_10_1614,Flow_endo_pre,3.0.5,59.912243566670774,
,,,4,1,77,,90,-4.6,left,,,,-4.6,1,0.5671389476738113,left,,,003,24,2019_Apr_10_1614,Flow_endo_pre,3.0.5,59.912243566670774,
,,,5,1,76,,90,-4.6,left,,,,-4.6,1,0.49995689298884827,left,,,003,24,2019_Apr_10_1614,Flow_endo_pre,3.0.5,59.912243566670774,
,,,6,1,75,,90,4.6,right,,,,-4.6,1,0.5504654224005208,right,,,003,24,2019_Apr_10_1614,Flow_endo_pre,3.0.5,59.912243566670774,
,,,7,1,74,,0,-4.6,left,,,,4.6,1,0.833258081231179,left,,,003,24,2019_Apr_10_1614,Flow_endo_pre,3.0.5,59.912243566670774,
,,,8,1,73,,0,-4.6,left,,,,4.6,1,0.5165699795670662,left,,,003,24,2019_Apr_10_1614,Flow_endo_pre,3.0.5,59.912243566670774,
,,,9,1,72,,0,-4.6,left,,,,4.6,1,0.5335061465266335,left,,,003,24,2019_Apr_10_1614,Flow_endo_pre,3.0.5,59.912243566670774,
,,,10,1,71,,0,-4.6,left,,,,4.6,1,0.5174645611486994,left,,,003,24,2019_Apr_10_1614,Flow_endo_pre,3.0.5,59.912243566670774,
,,,11,1,70,,0,4.6,right,,,,-4.6,1,0.9171256600484412,right,,,003,24,2019_Apr_10_1614,Flow_endo_pre,3.0.5,59.912243566670774,
,,,12,1,69,,0,4.6,right,,,,-4.6,1,0.850494664062353,right,,,003,24,2019_Apr_10_1614,Flow_endo_pre,3.0.5,59.912243566670774,
,,,13,1,68,,0,-4.6,left,,,,-4.6,1,0.46677116043247224,left,,,003,24,2019_Apr_10_1614,Flow_endo_pre,3.0.5,59.912243566670774,
,,,14,1,67,,90,-4.6,left,,,,4.6,0,0.9831740447798438,right,,,003,24,2019_Apr_10_1614,Flow_endo_pre,3.0.5,59.912243566670774,
,,,15,1,68,,0,-4.6,left,,,,4.6,1,0.600651315829964,left,,,003,24,2019_Apr_10_1614,Flow_endo_pre,3.0.5,59.912243566670774,
,,,16,1,68,,90,-4.6,left,,,,-4.6,1,0.516866395818397,left,,,003,24,2019_Apr_10_1614,Flow_endo_pre,3.0.5,59.912243566670774,
,,,17,1,68,,0,4.6,right,,,,-4.6,0,1.2997737104115004,left,,,003,24,2019_Apr_10_1614,Flow_endo_pre,3.0.5,59.912243566670774,
,,,18,1,69,,90,-4.6,left,,,,4.6,1,0.6671916537716243,left,,,003,24,2019_Apr_10_1614,Flow_endo_pre,3.0.5,59.912243566670774,
,,,19,1,69,,0,4.6,right,,,,4.6,1,0.6340174756714987,right,,,003,24,2019_Apr_10_1614,Flow_endo_pre,3.0.5,59.912243566670774,
,,,20,1,69,,0,4.6,right,,,,4.6,1,0.5832249732693526,right,,,003,24,2019_Apr_10_1614,Flow_endo_pre,3.0.5,59.912243566670774,
,,,21,1,68,,0,4.6,right,,,,-4.6,1,1.3000590166093389,right,,,003,24,2019_Apr_10_1614,Flow_endo_pre,3.0.5,59.912243566670774,
,,,22,1,68,,0,-4.6,left,,,,-4.6,1,0.5003519665242493,left,,,003,24,2019_Apr_10_1614,Flow_endo_pre,3.0.5,59.912243566670774,
,,,23,1,68,,90,4.6,right,,,,4.6,1,0.8170142928629502,right,,,003,24,2019_Apr_10_1614,Flow_endo_pre,3.0.5,59.912243566670774,
,,,24,1,67,,90,4.6,right,,,,4.6,1,0.5334599287007222,right,,,003,24,2019_Apr_10_1614,Flow_endo_pre,3.0.5,59.912243566670774,
,,,25,1,67,,0,-4.6,left,,,,-4.6,1,0.5669527431618917,left,,,003,24,2019_Apr_10_1614,Flow_endo_pre,3.0.5,59.912243566670774,
,,,26,1,67,,90,-4.6,left,,,,4.6,0,0.9502162905391742,right,,,003,24,2019_Apr_10_1614,Flow_endo_pre,3.0.5,59.912243566670774,
,,,27,1,68,,0,-4.6,left,,,,-4.6,1,0.7496487000789784,left,,,003,24,2019_Apr_10_1614,Flow_endo_pre,3.0.5,59.912243566670774,
,,,28,1,68,,90,4.6,right,,,,4.6,1,0.6167173433286735,right,,,003,24,2019_Apr_10_1614,Flow_endo_pre,3.0.5,59.912243566670774,
,,,29,1,68,,0,-4.6,left,,,,4.6,1,0.5335732512558025,left,,,003,24,2019_Apr_10_1614,Flow_endo_pre,3.0.5,59.912243566670774,
,,,30,1,67,,90,-4.6,left,,,,-4.6,1,0.5505325271287802,left,,,003,24,2019_Apr_10_1614,Flow_endo_pre,3.0.5,59.912243566670774,
,,,31,1,67,,90,-4.6,left,,,,-4.6,1,0.617330618332744,left,,,003,24,2019_Apr_10_1614,Flow_endo_pre,3.0.5,59.912243566670774,
,,,32,1,67,,0,4.6,right,,,,-4.6,1,0.8005580802537224,right,,,003,24,2019_Apr_10_1614,Flow_endo_pre,3.0.5,59.912243566670774,
,,,33,1,66,,0,-4.6,left,,,,4.6,0,1.1664366144732412,right,,,003,24,2019_Apr_10_1614,Flow_endo_pre,3.0.5,59.912243566670774,
,,,34,1,67,,0,-4.6,left,,,,4.6,1,0.550341878594736,left,,,003,24,2019_Apr_10_1614,Flow_endo_pre,3.0.5,59.912243566670774,
,,,35,1,67,,90,4.6,right,,,,-4.6,0,1.1998094403461437,left,,,003,24,2019_Apr_10_1614,Flow_endo_pre,3.0.5,59.912243566670774,
,,,36,1,68,,90,-4.6,left,,,,4.6,1,1.533526589027133,left,,,003,24,2019_Apr_10_1614,Flow_endo_pre,3.0.5,59.912243566670774,
,,,37,1,68,,0,4.6,right,,,,-4.6,1,1.1003713424597663,right,,,003,24,2019_Apr_10_1614,Flow_endo_pre,3.0.5,59.912243566670774,
,,,38,1,68,,90,4.6,right,,,,4.6,1,0.6501483858864958,right,,,003,24,2019_Apr_10_1614,Flow_endo_pre,3.0.5,59.912243566670774,
,,,39,1,67,,90,4.6,right,,,,-4.6,1,0.700500930133785,right,,,003,24,2019_Apr_10_1614,Flow_endo_pre,3.0.5,59.912243566670774,
,,,40,1,67,,0,-4.6,left,,,,4.6,0,0.7005391487209636,right,,,003,24,2019_Apr_10_1614,Flow_endo_pre,3.0.5,59.912243566670774,
,,,41,1,68,,0,-4.6,left,,,,-4.6,1,0.7671723667172046,left,,,003,24,2019_Apr_10_1614,Flow_endo_pre,3.0.5,59.912243566670774,
,,,42,1,68,,0,-4.6,left,,,,4.6,1,1.5668718619645006,left,,,003,24,2019_Apr_10_1614,Flow_endo_pre,3.0.5,59.912243566670774,
,,,43,1,68,,0,4.6,right,,,,4.6,1,0.5837222593054321,right,,,003,24,2019_Apr_10_1614,Flow_endo_pre,3.0.5,59.912243566670774,
,,,44,1,67,,90,4.6,right,,,,4.6,1,0.5335572527774275,right,,,003,24,2019_Apr_10_1614,Flow_endo_pre,3.0.5,59.912243566670774,
,,,45,1,67,,90,-4.6,left,,,,4.6,1,0.90031570330666,left,,,003,24,2019_Apr_10_1614,Flow_endo_pre,3.0.5,59.912243566670774,
,,,46,1,67,,90,4.6,right,,,,4.6,1,0.6337055053427321,right,,,003,24,2019_Apr_10_1614,Flow_endo_pre,3.0.5,59.912243566670774,
,,,47,1,66,,90,4.6,right,,,,-4.6,0,0.8834541959122362,left,,,003,24,2019_Apr_10_1614,Flow_endo_pre,3.0.5,59.912243566670774,
,,,48,1,67,,0,-4.6,left,,,,4.6,0,0.8504448910198334,right,,,003,24,2019_Apr_10_1614,Flow_endo_pre,3.0.5,59.912243566670774,
,,,49,1,68,,0,4.6,right,,,,4.6,1,1.1005922103413468,right,,,003,24,2019_Apr_10_1614,Flow_endo_pre,3.0.5,59.912243566670774,
,,,50,1,68,,90,-4.6,left,,,,-4.6,1,0.6502399327355306,left,,,003,24,2019_Apr_10_1614,Flow_endo_pre,3.0.5,59.912243566670774,
,,,51,1,68,,0,4.6,right,,,,4.6,1,0.6166706810990945,right,,,003,24,2019_Apr_10_1614,Flow_endo_pre,3.0.5,59.912243566670774,
,,,52,1,67,,90,-4.6,left,,,,4.6,0,1.3833946460199513,right,,,003,24,2019_Apr_10_1614,Flow_endo_pre,3.0.5,59.912243566670774,
,,,53,1,68,,90,4.6,right,,,,4.6,1,0.6506252294229853,right,,,003,24,2019_Apr_10_1614,Flow_endo_pre,3.0.5,59.912243566670774,
,,,54,1,68,,0,-4.6,left,,,,4.6,1,0.7668466199211252,left,,,003,24,2019_Apr_10_1614,Flow_endo_pre,3.0.5,59.912243566670774,
,,,55,1,68,,90,-4.6,left,,,,4.6,1,1.0001164333698398,left,,,003,24,2019_Apr_10_1614,Flow_endo_pre,3.0.5,59.912243566670774,
,,,56,1,67,,0,4.6,right,,,,-4.6,0,0.5166784136972637,left,,,003,24,2019_Apr_10_1614,Flow_endo_pre,3.0.5,59.912243566670774,
,,,57,1,68,,90,4.6,right,,,,4.6,1,0.5172743570165039,right,,,003,24,2019_Apr_10_1614,Flow_endo_pre,3.0.5,59.912243566670774,
,,,58,1,68,,90,-4.6,left,,,,4.6,0,1.5672736015330884,right,,,003,24,2019_Apr_10_1614,Flow_endo_pre,3.0.5,59.912243566670774,
,,,59,1,69,,90,4.6,right,,,,4.6,1,0.7000463067070086,right,,,003,24,2019_Apr_10_1614,Flow_endo_pre,3.0.5,59.912243566670774,
,,,60,1,69,,90,4.6,right,,,,4.6,1,0.583249415388309,right,,,003,24,2019_Apr_10_1614,Flow_endo_pre,3.0.5,59.912243566670774,
,,,61,1,69,,90,4.6,right,,,,4.6,1,0.6005655462104187,right,,,003,24,2019_Apr_10_1614,Flow_endo_pre,3.0.5,59.912243566670774,
,,,,,,,,,,,,,,,,,Friday,9.881,003,24,2019_Apr_10_1614,Flow_endo_pre,3.0.5,59.912243566670774,
