Questions,Stair.thisTrialN,Stair.stepSize,Stair.intensity,Stair2.thisTrialN,Stair2.stepSize,Stair2.intensity,controlQ.thisRepN,controlQ.thisTrialN,controlQ.thisN,controlQ.thisIndex,Qs.thisRepN,Qs.thisTrialN,Qs.thisN,Qs.thisIndex,cueOri,targetXOri,targetXPos,CorrectAns,Stair.response,keyPress.rt,keyPress.rl,cueExoPos,Stair2.response,keyPress_2.rt,keyPress_2.rl,key_start.keys,key_start.rt,Quest_Ans.response,Quest_Ans.rt,Session,Participant,date,expName,psychopyVersion,frameRate,
,0,1,81,,,,,,,,,,,,0,90,4.6,right,1,0.535311403,right,,,,,,,,,3,183,2019_Apr_10_1608,Flow_endo_post,3.0.6,60.14570972,
,1,1,80,,,,,,,,,,,,180,90,4.6,right,1,0.635657761,right,,,,,,,,,3,183,2019_Apr_10_1608,Flow_endo_post,3.0.6,60.14570972,
,2,1,79,,,,,,,,,,,,0,90,-4.6,left,1,0.502077542,left,,,,,,,,,3,183,2019_Apr_10_1608,Flow_endo_post,3.0.6,60.14570972,
,3,1,78,,,,,,,,,,,,180,90,-4.6,left,1,0.46716999,left,,,,,,,,,3,183,2019_Apr_10_1608,Flow_endo_post,3.0.6,60.14570972,
,4,1,77,,,,,,,,,,,,180,90,4.6,right,1,0.467805967,right,,,,,,,,,3,183,2019_Apr_10_1608,Flow_endo_post,3.0.6,60.14570972,
,5,1,76,,,,,,,,,,,,180,0,-4.6,left,1,0.470873569,left,,,,,,,,,3,183,2019_Apr_10_1608,Flow_endo_post,3.0.6,60.14570972,
,6,1,75,,,,,,,,,,,,0,90,-4.6,left,1,0.418831329,left,,,,,,,,,3,183,2019_Apr_10_1608,Flow_endo_post,3.0.6,60.14570972,
,7,1,74,,,,,,,,,,,,0,0,-4.6,left,1,0.468362095,left,,,,,,,,,3,183,2019_Apr_10_1608,Flow_endo_post,3.0.6,60.14570972,
,8,1,73,,,,,,,,,,,,180,90,4.6,right,1,0.40246293,right,,,,,,,,,3,183,2019_Apr_10_1608,Flow_endo_post,3.0.6,60.14570972,
,9,1,72,,,,,,,,,,,,0,90,4.6,right,1,1.737112707,right,,,,,,,,,3,183,2019_Apr_10_1608,Flow_endo_post,3.0.6,60.14570972,
,10,1,71,,,,,,,,,,,,0,90,-4.6,left,1,0.435912486,left,,,,,,,,,3,183,2019_Apr_10_1608,Flow_endo_post,3.0.6,60.14570972,
,11,1,70,,,,,,,,,,,,0,0,-4.6,left,1,0.435145923,left,,,,,,,,,3,183,2019_Apr_10_1608,Flow_endo_post,3.0.6,60.14570972,
,12,1,69,,,,,,,,,,,,180,0,4.6,right,1,0.434845463,right,,,,,,,,,3,183,2019_Apr_10_1608,Flow_endo_post,3.0.6,60.14570972,
,13,1,68,,,,,,,,,,,,180,90,4.6,right,1,0.651295184,right,,,,,,,,,3,183,2019_Apr_10_1608,Flow_endo_post,3.0.6,60.14570972,
,14,1,67,,,,,,,,,,,,0,90,4.6,right,0,1.886622763,left,,,,,,,,,3,183,2019_Apr_10_1608,Flow_endo_post,3.0.6,60.14570972,
,15,1,68,,,,,,,,,,,,180,0,-4.6,left,1,1.085153393,left,,,,,,,,,3,183,2019_Apr_10_1608,Flow_endo_post,3.0.6,60.14570972,
,16,1,68,,,,,,,,,,,,180,90,-4.6,left,1,0.852236862,left,,,,,,,,,3,183,2019_Apr_10_1608,Flow_endo_post,3.0.6,60.14570972,
,17,1,68,,,,,,,,,,,,0,90,4.6,right,0,0.552819673,left,,,,,,,,,3,183,2019_Apr_10_1608,Flow_endo_post,3.0.6,60.14570972,
,18,1,69,,,,,,,,,,,,0,90,4.6,right,0,0.602493592,left,,,,,,,,,3,183,2019_Apr_10_1608,Flow_endo_post,3.0.6,60.14570972,
,19,1,70,,,,,,,,,,,,180,90,4.6,right,1,0.568799663,right,,,,,,,,,3,183,2019_Apr_10_1608,Flow_endo_post,3.0.6,60.14570972,
,20,1,70,,,,,,,,,,,,0,0,-4.6,left,1,0.585872896,left,,,,,,,,,3,183,2019_Apr_10_1608,Flow_endo_post,3.0.6,60.14570972,
,21,1,70,,,,,,,,,,,,180,90,-4.6,left,1,1.385865166,left,,,,,,,,,3,183,2019_Apr_10_1608,Flow_endo_post,3.0.6,60.14570972,
,22,1,69,,,,,,,,,,,,180,0,4.6,right,0,2.301578798,left,,,,,,,,,3,183,2019_Apr_10_1608,Flow_endo_post,3.0.6,60.14570972,
,23,1,70,,,,,,,,,,,,0,90,-4.6,left,1,0.501626537,left,,,,,,,,,3,183,2019_Apr_10_1608,Flow_endo_post,3.0.6,60.14570972,
,24,1,70,,,,,,,,,,,,0,90,4.6,right,0,0.534088107,left,,,,,,,,,3,183,2019_Apr_10_1608,Flow_endo_post,3.0.6,60.14570972,
,25,1,71,,,,,,,,,,,,180,90,4.6,right,1,0.468129527,right,,,,,,,,,3,183,2019_Apr_10_1608,Flow_endo_post,3.0.6,60.14570972,
,26,1,71,,,,,,,,,,,,180,0,4.6,right,0,2.419953521,left,,,,,,,,,3,183,2019_Apr_10_1608,Flow_endo_post,3.0.6,60.14570972,
,27,1,72,,,,,,,,,,,,180,0,4.6,right,1,1.502646754,right,,,,,,,,,3,183,2019_Apr_10_1608,Flow_endo_post,3.0.6,60.14570972,
,28,1,72,,,,,,,,,,,,180,0,4.6,right,0,2.803416163,left,,,,,,,,,3,183,2019_Apr_10_1608,Flow_endo_post,3.0.6,60.14570972,
,29,1,73,,,,,,,,,,,,0,0,4.6,right,1,0.7026749,right,,,,,,,,,3,183,2019_Apr_10_1608,Flow_endo_post,3.0.6,60.14570972,
,30,1,73,,,,,,,,,,,,180,90,4.6,right,1,0.602740437,right,,,,,,,,,3,183,2019_Apr_10_1608,Flow_endo_post,3.0.6,60.14570972,
,31,1,73,,,,,,,,,,,,0,0,-4.6,left,1,0.503238247,left,,,,,,,,,3,183,2019_Apr_10_1608,Flow_endo_post,3.0.6,60.14570972,
,32,1,72,,,,,,,,,,,,0,0,-4.6,left,1,0.468951572,left,,,,,,,,,3,183,2019_Apr_10_1608,Flow_endo_post,3.0.6,60.14570972,
,33,1,72,,,,,,,,,,,,180,0,4.6,right,1,0.652053012,right,,,,,,,,,3,183,2019_Apr_10_1608,Flow_endo_post,3.0.6,60.14570972,
,34,1,72,,,,,,,,,,,,180,0,-4.6,left,1,0.568509567,left,,,,,,,,,3,183,2019_Apr_10_1608,Flow_endo_post,3.0.6,60.14570972,
,35,1,71,,,,,,,,,,,,180,0,4.6,right,1,0.500807667,right,,,,,,,,,3,183,2019_Apr_10_1608,Flow_endo_post,3.0.6,60.14570972,
,36,1,71,,,,,,,,,,,,0,0,-4.6,left,1,0.384575469,left,,,,,,,,,3,183,2019_Apr_10_1608,Flow_endo_post,3.0.6,60.14570972,
,37,1,71,,,,,,,,,,,,180,90,-4.6,left,1,0.836722036,left,,,,,,,,,3,183,2019_Apr_10_1608,Flow_endo_post,3.0.6,60.14570972,
,38,1,70,,,,,,,,,,,,180,0,4.6,right,1,0.503354833,right,,,,,,,,,3,183,2019_Apr_10_1608,Flow_endo_post,3.0.6,60.14570972,
,39,1,70,,,,,,,,,,,,180,0,-4.6,left,1,0.453042657,left,,,,,,,,,3,183,2019_Apr_10_1608,Flow_endo_post,3.0.6,60.14570972,
,40,1,70,,,,,,,,,,,,0,90,-4.6,left,1,0.418726756,left,,,,,,,,,3,183,2019_Apr_10_1608,Flow_endo_post,3.0.6,60.14570972,
,41,1,69,,,,,,,,,,,,0,0,4.6,right,1,1.736949803,right,,,,,,,,,3,183,2019_Apr_10_1608,Flow_endo_post,3.0.6,60.14570972,
,42,1,69,,,,,,,,,,,,0,90,4.6,right,0,0.452419105,left,,,,,,,,,3,183,2019_Apr_10_1608,Flow_endo_post,3.0.6,60.14570972,
,43,1,70,,,,,,,,,,,,180,0,-4.6,left,1,0.636990144,left,,,,,,,,,3,183,2019_Apr_10_1608,Flow_endo_post,3.0.6,60.14570972,
,44,1,70,,,,,,,,,,,,180,90,-4.6,left,1,0.619639794,left,,,,,,,,,3,183,2019_Apr_10_1608,Flow_endo_post,3.0.6,60.14570972,
,45,1,70,,,,,,,,,,,,0,0,-4.6,left,1,0.435336867,left,,,,,,,,,3,183,2019_Apr_10_1608,Flow_endo_post,3.0.6,60.14570972,
,46,1,69,,,,,,,,,,,,180,90,-4.6,left,1,1.301242689,left,,,,,,,,,3,183,2019_Apr_10_1608,Flow_endo_post,3.0.6,60.14570972,
,47,1,69,,,,,,,,,,,,0,90,4.6,right,1,1.48325686,right,,,,,,,,,3,183,2019_Apr_10_1608,Flow_endo_post,3.0.6,60.14570972,
,48,1,69,,,,,,,,,,,,0,0,4.6,right,0,2.385770384,left,,,,,,,,,3,183,2019_Apr_10_1608,Flow_endo_post,3.0.6,60.14570972,
,49,1,70,,,,,,,,,,,,180,0,-4.6,left,1,0.902233617,left,,,,,,,,,3,183,2019_Apr_10_1608,Flow_endo_post,3.0.6,60.14570972,
,50,1,70,,,,,,,,,,,,180,90,4.6,right,1,1.00181062,right,,,,,,,,,3,183,2019_Apr_10_1608,Flow_endo_post,3.0.6,60.14570972,
,51,1,70,,,,,,,,,,,,180,0,4.6,right,1,1.218954819,right,,,,,,,,,3,183,2019_Apr_10_1608,Flow_endo_post,3.0.6,60.14570972,
,52,1,69,,,,,,,,,,,,180,0,4.6,right,1,1.235768352,right,,,,,,,,,3,183,2019_Apr_10_1608,Flow_endo_post,3.0.6,60.14570972,
,53,1,69,,,,,,,,,,,,180,90,-4.6,left,1,0.683685797,left,,,,,,,,,3,183,2019_Apr_10_1608,Flow_endo_post,3.0.6,60.14570972,
,54,1,69,,,,,,,,,,,,0,90,-4.6,left,1,0.418367586,left,,,,,,,,,3,183,2019_Apr_10_1608,Flow_endo_post,3.0.6,60.14570972,
,55,1,68,,,,,,,,,,,,180,90,-4.6,left,1,1.435911245,left,,,,,,,,,3,183,2019_Apr_10_1608,Flow_endo_post,3.0.6,60.14570972,
,56,1,68,,,,,,,,,,,,0,0,4.6,right,0,0.485354139,left,,,,,,,,,3,183,2019_Apr_10_1608,Flow_endo_post,3.0.6,60.14570972,
,57,1,69,,,,,,,,,,,,180,90,-4.6,left,0,0.785653376,right,,,,,,,,,3,183,2019_Apr_10_1608,Flow_endo_post,3.0.6,60.14570972,
,58,1,70,,,,,,,,,,,,180,90,-4.6,left,1,0.718925161,left,,,,,,,,,3,183,2019_Apr_10_1608,Flow_endo_post,3.0.6,60.14570972,
,59,1,70,,,,,,,,,,,,0,90,4.6,right,0,2.038003483,left,,,,,,,,,3,183,2019_Apr_10_1608,Flow_endo_post,3.0.6,60.14570972,
,60,1,71,,,,,,,,,,,,0,90,4.6,right,0,1.853175362,left,,,,,,,,,3,183,2019_Apr_10_1608,Flow_endo_post,3.0.6,60.14570972,
,61,1,72,,,,,,,,,,,,0,0,-4.6,left,1,0.468470181,left,,,,,,,,,3,183,2019_Apr_10_1608,Flow_endo_post,3.0.6,60.14570972,
,62,1,72,,,,,,,,,,,,180,90,4.6,right,1,0.43606972,right,,,,,,,,,3,183,2019_Apr_10_1608,Flow_endo_post,3.0.6,60.14570972,
,63,1,72,,,,,,,,,,,,180,90,-4.6,left,1,0.469329759,left,,,,,,,,,3,183,2019_Apr_10_1608,Flow_endo_post,3.0.6,60.14570972,
,64,1,71,,,,,,,,,,,,180,90,-4.6,left,1,0.569759912,left,,,,,,,,,3,183,2019_Apr_10_1608,Flow_endo_post,3.0.6,60.14570972,
,65,1,71,,,,,,,,,,,,180,90,-4.6,left,1,0.669415461,left,,,,,,,,,3,183,2019_Apr_10_1608,Flow_endo_post,3.0.6,60.14570972,
,66,1,71,,,,,,,,,,,,180,90,-4.6,left,1,0.550284022,left,,,,,,,,,3,183,2019_Apr_10_1608,Flow_endo_post,3.0.6,60.14570972,
,67,1,70,,,,,,,,,,,,180,90,4.6,right,1,0.467527048,right,,,,,,,,,3,183,2019_Apr_10_1608,Flow_endo_post,3.0.6,60.14570972,
,68,1,70,,,,,,,,,,,,0,90,-4.6,left,1,0.451980905,left,,,,,,,,,3,183,2019_Apr_10_1608,Flow_endo_post,3.0.6,60.14570972,
,69,1,70,,,,,,,,,,,,180,90,-4.6,left,0,1.600512898,right,,,,,,,,,3,183,2019_Apr_10_1608,Flow_endo_post,3.0.6,60.14570972,
,70,1,71,,,,,,,,,,,,180,90,-4.6,left,1,0.468208423,left,,,,,,,,,3,183,2019_Apr_10_1608,Flow_endo_post,3.0.6,60.14570972,
,71,1,71,,,,,,,,,,,,0,0,-4.6,left,1,0.41856975,left,,,,,,,,,3,183,2019_Apr_10_1608,Flow_endo_post,3.0.6,60.14570972,
,72,1,71,,,,,,,,,,,,180,0,-4.6,left,1,0.751935384,left,,,,,,,,,3,183,2019_Apr_10_1608,Flow_endo_post,3.0.6,60.14570972,
,73,1,70,,,,,,,,,,,,180,0,4.6,right,1,0.419212643,right,,,,,,,,,3,183,2019_Apr_10_1608,Flow_endo_post,3.0.6,60.14570972,
,74,1,70,,,,,,,,,,,,180,0,-4.6,left,1,0.501397947,left,,,,,,,,,3,183,2019_Apr_10_1608,Flow_endo_post,3.0.6,60.14570972,
,75,1,70,,,,,,,,,,,,180,0,-4.6,left,1,0.385001647,left,,,,,,,,,3,183,2019_Apr_10_1608,Flow_endo_post,3.0.6,60.14570972,
,76,1,69,,,,,,,,,,,,180,0,4.6,right,1,0.702583728,right,,,,,,,,,3,183,2019_Apr_10_1608,Flow_endo_post,3.0.6,60.14570972,
,77,1,69,,,,,,,,,,,,0,0,4.6,right,0,0.436629349,left,,,,,,,,,3,183,2019_Apr_10_1608,Flow_endo_post,3.0.6,60.14570972,
,78,1,70,,,,,,,,,,,,0,0,-4.6,left,1,0.486131342,left,,,,,,,,,3,183,2019_Apr_10_1608,Flow_endo_post,3.0.6,60.14570972,
,79,1,70,,,,,,,,,,,,0,0,4.6,right,1,1.919563373,right,,,,,,,,,3,183,2019_Apr_10_1608,Flow_endo_post,3.0.6,60.14570972,
,80,1,70,,,,,,,,,,,,180,90,4.6,right,1,0.60145648,right,,,,,,,,,3,183,2019_Apr_10_1608,Flow_endo_post,3.0.6,60.14570972,
,,,,0,1,81,,,,,,,,,,0,-4.6,left,,,,-4.6,1,0.819272594,left,,,,,3,183,2019_Apr_10_1608,Flow_endo_post,3.0.6,60.14570972,
,,,,1,1,80,,,,,,,,,,0,4.6,right,,,,4.6,1,0.568681922,right,,,,,3,183,2019_Apr_10_1608,Flow_endo_post,3.0.6,60.14570972,
,,,,2,1,79,,,,,,,,,,90,4.6,right,,,,4.6,0,0.585510553,left,,,,,3,183,2019_Apr_10_1608,Flow_endo_post,3.0.6,60.14570972,
,,,,3,1,80,,,,,,,,,,90,-4.6,left,,,,-4.6,1,0.588451422,left,,,,,3,183,2019_Apr_10_1608,Flow_endo_post,3.0.6,60.14570972,
,,,,4,1,80,,,,,,,,,,0,-4.6,left,,,,-4.6,1,0.701995469,left,,,,,3,183,2019_Apr_10_1608,Flow_endo_post,3.0.6,60.14570972,
,,,,5,1,80,,,,,,,,,,90,4.6,right,,,,4.6,1,0.535749721,right,,,,,3,183,2019_Apr_10_1608,Flow_endo_post,3.0.6,60.14570972,
,,,,6,1,79,,,,,,,,,,90,4.6,right,,,,4.6,1,0.485752607,right,,,,,3,183,2019_Apr_10_1608,Flow_endo_post,3.0.6,60.14570972,
,,,,7,1,79,,,,,,,,,,90,4.6,right,,,,4.6,1,0.469413188,right,,,,,3,183,2019_Apr_10_1608,Flow_endo_post,3.0.6,60.14570972,
,,,,8,1,79,,,,,,,,,,0,4.6,right,,,,4.6,1,0.368781907,right,,,,,3,183,2019_Apr_10_1608,Flow_endo_post,3.0.6,60.14570972,
,,,,9,1,78,,,,,,,,,,0,-4.6,left,,,,4.6,1,0.536304272,left,,,,,3,183,2019_Apr_10_1608,Flow_endo_post,3.0.6,60.14570972,
,,,,10,1,78,,,,,,,,,,90,-4.6,left,,,,4.6,1,0.501271096,left,,,,,3,183,2019_Apr_10_1608,Flow_endo_post,3.0.6,60.14570972,
,,,,11,1,78,,,,,,,,,,0,-4.6,left,,,,4.6,1,0.668396318,left,,,,,3,183,2019_Apr_10_1608,Flow_endo_post,3.0.6,60.14570972,
,,,,12,1,77,,,,,,,,,,0,4.6,right,,,,4.6,1,0.435854778,right,,,,,3,183,2019_Apr_10_1608,Flow_endo_post,3.0.6,60.14570972,
,,,,13,1,77,,,,,,,,,,0,-4.6,left,,,,4.6,1,0.451499881,left,,,,,3,183,2019_Apr_10_1608,Flow_endo_post,3.0.6,60.14570972,
,,,,14,1,77,,,,,,,,,,0,4.6,right,,,,4.6,1,0.467427434,right,,,,,3,183,2019_Apr_10_1608,Flow_endo_post,3.0.6,60.14570972,
,,,,15,1,76,,,,,,,,,,0,4.6,right,,,,4.6,1,0.500567139,right,,,,,3,183,2019_Apr_10_1608,Flow_endo_post,3.0.6,60.14570972,
,,,,16,1,76,,,,,,,,,,90,4.6,right,,,,-4.6,1,0.668909129,right,,,,,3,183,2019_Apr_10_1608,Flow_endo_post,3.0.6,60.14570972,
,,,,17,1,76,,,,,,,,,,90,4.6,right,,,,4.6,1,0.469295678,right,,,,,3,183,2019_Apr_10_1608,Flow_endo_post,3.0.6,60.14570972,
,,,,18,1,75,,,,,,,,,,90,4.6,right,,,,-4.6,1,0.635638686,right,,,,,3,183,2019_Apr_10_1608,Flow_endo_post,3.0.6,60.14570972,
,,,,19,1,75,,,,,,,,,,0,-4.6,left,,,,-4.6,1,0.450717492,left,,,,,3,183,2019_Apr_10_1608,Flow_endo_post,3.0.6,60.14570972,
,,,,20,1,75,,,,,,,,,,90,4.6,right,,,,-4.6,1,1.652630424,right,,,,,3,183,2019_Apr_10_1608,Flow_endo_post,3.0.6,60.14570972,
,,,,21,1,74,,,,,,,,,,90,-4.6,left,,,,-4.6,1,0.718472072,left,,,,,3,183,2019_Apr_10_1608,Flow_endo_post,3.0.6,60.14570972,
,,,,22,1,74,,,,,,,,,,0,4.6,right,,,,-4.6,1,1.15288626,right,,,,,3,183,2019_Apr_10_1608,Flow_endo_post,3.0.6,60.14570972,
,,,,23,1,74,,,,,,,,,,90,-4.6,left,,,,4.6,1,0.768579709,left,,,,,3,183,2019_Apr_10_1608,Flow_endo_post,3.0.6,60.14570972,
,,,,24,1,73,,,,,,,,,,0,-4.6,left,,,,-4.6,1,1.151482074,left,,,,,3,183,2019_Apr_10_1608,Flow_endo_post,3.0.6,60.14570972,
,,,,25,1,73,,,,,,,,,,0,-4.6,left,,,,-4.6,1,0.418030411,left,,,,,3,183,2019_Apr_10_1608,Flow_endo_post,3.0.6,60.14570972,
,,,,26,1,73,,,,,,,,,,90,-4.6,left,,,,4.6,1,0.420057413,left,,,,,3,183,2019_Apr_10_1608,Flow_endo_post,3.0.6,60.14570972,
,,,,27,1,72,,,,,,,,,,90,-4.6,left,,,,4.6,1,0.536002052,left,,,,,3,183,2019_Apr_10_1608,Flow_endo_post,3.0.6,60.14570972,
,,,,28,1,72,,,,,,,,,,0,4.6,right,,,,-4.6,1,0.667451245,right,,,,,3,183,2019_Apr_10_1608,Flow_endo_post,3.0.6,60.14570972,
,,,,29,1,72,,,,,,,,,,90,-4.6,left,,,,4.6,1,0.604254548,left,,,,,3,183,2019_Apr_10_1608,Flow_endo_post,3.0.6,60.14570972,
,,,,30,1,71,,,,,,,,,,90,-4.6,left,,,,4.6,1,1.369926525,left,,,,,3,183,2019_Apr_10_1608,Flow_endo_post,3.0.6,60.14570972,
,,,,31,1,71,,,,,,,,,,0,-4.6,left,,,,4.6,1,1.002472943,left,,,,,3,183,2019_Apr_10_1608,Flow_endo_post,3.0.6,60.14570972,
,,,,32,1,71,,,,,,,,,,0,4.6,right,,,,4.6,0,1.001962478,left,,,,,3,183,2019_Apr_10_1608,Flow_endo_post,3.0.6,60.14570972,
,,,,33,1,72,,,,,,,,,,0,-4.6,left,,,,4.6,1,1.301875943,left,,,,,3,183,2019_Apr_10_1608,Flow_endo_post,3.0.6,60.14570972,
,,,,34,1,72,,,,,,,,,,90,4.6,right,,,,-4.6,1,0.601912803,right,,,,,3,183,2019_Apr_10_1608,Flow_endo_post,3.0.6,60.14570972,
,,,,35,1,72,,,,,,,,,,0,-4.6,left,,,,-4.6,1,0.834493652,left,,,,,3,183,2019_Apr_10_1608,Flow_endo_post,3.0.6,60.14570972,
,,,,36,1,71,,,,,,,,,,0,4.6,right,,,,-4.6,1,1.585994293,right,,,,,3,183,2019_Apr_10_1608,Flow_endo_post,3.0.6,60.14570972,
,,,,37,1,71,,,,,,,,,,90,-4.6,left,,,,-4.6,1,0.787282518,left,,,,,3,183,2019_Apr_10_1608,Flow_endo_post,3.0.6,60.14570972,
,,,,38,1,71,,,,,,,,,,90,-4.6,left,,,,4.6,1,0.652207731,left,,,,,3,183,2019_Apr_10_1608,Flow_endo_post,3.0.6,60.14570972,
,,,,39,1,70,,,,,,,,,,0,-4.6,left,,,,-4.6,1,0.668889183,left,,,,,3,183,2019_Apr_10_1608,Flow_endo_post,3.0.6,60.14570972,
,,,,40,1,70,,,,,,,,,,0,4.6,right,,,,4.6,1,1.202835197,right,,,,,3,183,2019_Apr_10_1608,Flow_endo_post,3.0.6,60.14570972,
,,,,41,1,70,,,,,,,,,,0,-4.6,left,,,,4.6,1,1.601779937,left,,,,,3,183,2019_Apr_10_1608,Flow_endo_post,3.0.6,60.14570972,
,,,,42,1,69,,,,,,,,,,0,4.6,right,,,,4.6,1,0.634314161,right,,,,,3,183,2019_Apr_10_1608,Flow_endo_post,3.0.6,60.14570972,
,,,,43,1,69,,,,,,,,,,90,-4.6,left,,,,-4.6,1,0.517903538,left,,,,,3,183,2019_Apr_10_1608,Flow_endo_post,3.0.6,60.14570972,
,,,,44,1,69,,,,,,,,,,0,-4.6,left,,,,4.6,1,1.070333494,left,,,,,3,183,2019_Apr_10_1608,Flow_endo_post,3.0.6,60.14570972,
,,,,45,1,68,,,,,,,,,,90,-4.6,left,,,,4.6,0,1.183152984,right,,,,,3,183,2019_Apr_10_1608,Flow_endo_post,3.0.6,60.14570972,
,,,,46,1,69,,,,,,,,,,90,4.6,right,,,,4.6,1,1.086521136,right,,,,,3,183,2019_Apr_10_1608,Flow_endo_post,3.0.6,60.14570972,
,,,,47,1,69,,,,,,,,,,0,4.6,right,,,,-4.6,0,1.719429679,left,,,,,3,183,2019_Apr_10_1608,Flow_endo_post,3.0.6,60.14570972,
,,,,48,1,70,,,,,,,,,,90,-4.6,left,,,,4.6,1,1.384950967,left,,,,,3,183,2019_Apr_10_1608,Flow_endo_post,3.0.6,60.14570972,
,,,,49,1,70,,,,,,,,,,0,-4.6,left,,,,-4.6,1,1.836197703,left,,,,,3,183,2019_Apr_10_1608,Flow_endo_post,3.0.6,60.14570972,
,,,,50,1,70,,,,,,,,,,90,4.6,right,,,,-4.6,1,0.768572862,right,,,,,3,183,2019_Apr_10_1608,Flow_endo_post,3.0.6,60.14570972,
,,,,51,1,69,,,,,,,,,,90,-4.6,left,,,,-4.6,1,0.435995717,left,,,,,3,183,2019_Apr_10_1608,Flow_endo_post,3.0.6,60.14570972,
,,,,52,1,69,,,,,,,,,,90,4.6,right,,,,4.6,1,0.552016938,right,,,,,3,183,2019_Apr_10_1608,Flow_endo_post,3.0.6,60.14570972,
,,,,53,1,69,,,,,,,,,,0,-4.6,left,,,,-4.6,1,0.384459892,left,,,,,3,183,2019_Apr_10_1608,Flow_endo_post,3.0.6,60.14570972,
,,,,54,1,68,,,,,,,,,,90,4.6,right,,,,4.6,1,1.336514627,right,,,,,3,183,2019_Apr_10_1608,Flow_endo_post,3.0.6,60.14570972,
,,,,55,1,68,,,,,,,,,,90,4.6,right,,,,-4.6,0,0.585492386,left,,,,,3,183,2019_Apr_10_1608,Flow_endo_post,3.0.6,60.14570972,
,,,,56,1,69,,,,,,,,,,90,-4.6,left,,,,4.6,1,1.435433805,left,,,,,3,183,2019_Apr_10_1608,Flow_endo_post,3.0.6,60.14570972,
,,,,57,1,69,,,,,,,,,,90,-4.6,left,,,,-4.6,1,0.586671197,left,,,,,3,183,2019_Apr_10_1608,Flow_endo_post,3.0.6,60.14570972,
,,,,58,1,69,,,,,,,,,,0,-4.6,left,,,,4.6,1,1.270563434,left,,,,,3,183,2019_Apr_10_1608,Flow_endo_post,3.0.6,60.14570972,
,,,,59,1,68,,,,,,,,,,0,-4.6,left,,,,-4.6,1,0.551928765,left,,,,,3,183,2019_Apr_10_1608,Flow_endo_post,3.0.6,60.14570972,
,,,,60,1,68,,,,,,,,,,0,-4.6,left,,,,4.6,1,2.319300869,left,,,,,3,183,2019_Apr_10_1608,Flow_endo_post,3.0.6,60.14570972,
,,,,61,1,68,,,,,,,,,,0,-4.6,left,,,,4.6,1,1.404763229,left,,,,,3,183,2019_Apr_10_1608,Flow_endo_post,3.0.6,60.14570972,
,,,,62,1,67,,,,,,,,,,0,4.6,right,,,,4.6,0,3.521243047,left,,,,,3,183,2019_Apr_10_1608,Flow_endo_post,3.0.6,60.14570972,
,,,,63,1,68,,,,,,,,,,90,4.6,right,,,,-4.6,0,1.770282045,left,,,,,3,183,2019_Apr_10_1608,Flow_endo_post,3.0.6,60.14570972,
,,,,64,1,69,,,,,,,,,,0,4.6,right,,,,-4.6,1,1.136964756,right,,,,,3,183,2019_Apr_10_1608,Flow_endo_post,3.0.6,60.14570972,
,,,,65,1,69,,,,,,,,,,0,-4.6,left,,,,4.6,1,0.570697352,left,,,,,3,183,2019_Apr_10_1608,Flow_endo_post,3.0.6,60.14570972,
,,,,66,1,69,,,,,,,,,,90,-4.6,left,,,,4.6,1,1.687614055,left,,,,,3,183,2019_Apr_10_1608,Flow_endo_post,3.0.6,60.14570972,
,,,,67,1,68,,,,,,,,,,90,4.6,right,,,,4.6,0,1.002790253,left,,,,,3,183,2019_Apr_10_1608,Flow_endo_post,3.0.6,60.14570972,
,,,,68,1,69,,,,,,,,,,90,4.6,right,,,,-4.6,0,0.886581651,left,,,,,3,183,2019_Apr_10_1608,Flow_endo_post,3.0.6,60.14570972,
,,,,69,1,70,,,,,,,,,,0,4.6,right,,,,-4.6,1,1.168770874,right,,,,,3,183,2019_Apr_10_1608,Flow_endo_post,3.0.6,60.14570972,
,,,,70,1,70,,,,,,,,,,0,-4.6,left,,,,-4.6,1,0.618005018,left,,,,,3,183,2019_Apr_10_1608,Flow_endo_post,3.0.6,60.14570972,
,,,,71,1,70,,,,,,,,,,0,-4.6,left,,,,-4.6,1,0.501212073,left,,,,,3,183,2019_Apr_10_1608,Flow_endo_post,3.0.6,60.14570972,
,,,,72,1,69,,,,,,,,,,0,-4.6,left,,,,-4.6,1,0.469069375,left,,,,,3,183,2019_Apr_10_1608,Flow_endo_post,3.0.6,60.14570972,
,,,,73,1,69,,,,,,,,,,90,-4.6,left,,,,-4.6,1,0.820465821,left,,,,,3,183,2019_Apr_10_1608,Flow_endo_post,3.0.6,60.14570972,
,,,,74,1,69,,,,,,,,,,0,-4.6,left,,,,4.6,1,0.602369543,left,,,,,3,183,2019_Apr_10_1608,Flow_endo_post,3.0.6,60.14570972,
,,,,75,1,68,,,,,,,,,,0,-4.6,left,,,,-4.6,1,0.519400174,left,,,,,3,183,2019_Apr_10_1608,Flow_endo_post,3.0.6,60.14570972,
,,,,76,1,68,,,,,,,,,,0,-4.6,left,,,,-4.6,1,0.449765777,left,,,,,3,183,2019_Apr_10_1608,Flow_endo_post,3.0.6,60.14570972,
,,,,77,1,68,,,,,,,,,,0,4.6,right,,,,-4.6,1,2.086766484,right,,,,,3,183,2019_Apr_10_1608,Flow_endo_post,3.0.6,60.14570972,
,,,,78,1,67,,,,,,,,,,0,4.6,right,,,,4.6,1,1.019238483,right,,,,,3,183,2019_Apr_10_1608,Flow_endo_post,3.0.6,60.14570972,
,,,,79,1,67,,,,,,,,,,0,4.6,right,,,,-4.6,0,0.684598107,left,,,,,3,183,2019_Apr_10_1608,Flow_endo_post,3.0.6,60.14570972,
,,,,80,1,68,,,,,,,,,,90,-4.6,left,,,,-4.6,1,0.485145656,left,,,,,3,183,2019_Apr_10_1608,Flow_endo_post,3.0.6,60.14570972,
,,,,81,1,68,,,,,,,,,,90,4.6,right,,,,-4.6,0,1.985847019,left,,,,,3,183,2019_Apr_10_1608,Flow_endo_post,3.0.6,60.14570972,
,,,,82,1,69,,,,,,,,,,90,-4.6,left,,,,-4.6,1,0.537679081,left,,,,,3,183,2019_Apr_10_1608,Flow_endo_post,3.0.6,60.14570972,
,,,,83,1,69,,,,,,,,,,90,4.6,right,,,,-4.6,0,0.618394173,left,,,,,3,183,2019_Apr_10_1608,Flow_endo_post,3.0.6,60.14570972,
,,,,84,1,70,,,,,,,,,,90,-4.6,left,,,,-4.6,1,0.717537582,left,,,,,3,183,2019_Apr_10_1608,Flow_endo_post,3.0.6,60.14570972,
,,,,85,1,70,,,,,,,,,,0,-4.6,left,,,,4.6,1,0.585174771,left,,,,,3,183,2019_Apr_10_1608,Flow_endo_post,3.0.6,60.14570972,
,,,,86,1,70,,,,,,,,,,90,-4.6,left,,,,-4.6,1,0.468549321,left,,,,,3,183,2019_Apr_10_1608,Flow_endo_post,3.0.6,60.14570972,
,,,,,,,,,,,,,,,,,,,,,,,,,,space,4.553179415,,,3,183,2019_Apr_10_1608,Flow_endo_post,3.0.6,60.14570972,
My state (body feelings, emotions and thoughts) during the task on the computer was similar to the state I had during my music performance.,,,,,,,0,0,0,0,,,,,,,,,,,,,,,,,,5,6.929,3,183,2019_Apr_10_1608,Flow_endo_post,3.0.6,60.14570972
I really enjoyed the experience.,,,,,,,,,,,0,0,0,17,,,,,,,,,,,,,,5,4.758,3,183,2019_Apr_10_1608,Flow_endo_post,3.0.6,60.14570972,
I was not concerned with how I was presenting myself.,,,,,,,,,,,0,1,1,15,,,,,,,,,,,,,,5,5.758,3,183,2019_Apr_10_1608,Flow_endo_post,3.0.6,60.14570972,
The challenge and my skills were at an equally high level.,,,,,,,,,,,0,2,2,10,,,,,,,,,,,,,,5,4.608,3,183,2019_Apr_10_1608,Flow_endo_post,3.0.6,60.14570972,
I felt that I had everything under control.,,,,,,,,,,,0,3,3,13,,,,,,,,,,,,,,5,3.575,3,183,2019_Apr_10_1608,Flow_endo_post,3.0.6,60.14570972,
I did things spontaneously without having to think.,,,,,,,,,,,0,4,4,22,,,,,,,,,,,,,,4,9.528,3,183,2019_Apr_10_1608,Flow_endo_post,3.0.6,60.14570972,
My attention was focused entirely on what I was doing.,,,,,,,,,,,0,5,5,3,,,,,,,,,,,,,,5,6.944,3,183,2019_Apr_10_1608,Flow_endo_post,3.0.6,60.14570972,
I lost my normal awareness of time.,,,,,,,,,,,0,6,6,20,,,,,,,,,,,,,,5,5.364,3,183,2019_Apr_10_1608,Flow_endo_post,3.0.6,60.14570972,
I had no difficulty concentrating.,,,,,,,,,,,0,7,7,6,,,,,,,,,,,,,,5,3.109,3,183,2019_Apr_10_1608,Flow_endo_post,3.0.6,60.14570972,
The experience left me feeling great.,,,,,,,,,,,0,8,8,18,,,,,,,,,,,,,,5,3.495,3,183,2019_Apr_10_1608,Flow_endo_post,3.0.6,60.14570972,
It was no effort to keep my mind on what was happening.,,,,,,,,,,,0,9,9,4,,,,,,,,,,,,,,5,6.492,3,183,2019_Apr_10_1608,Flow_endo_post,3.0.6,60.14570972,
I had a good idea while I was performing about how well I was doing.,,,,,,,,,,,0,10,10,8,,,,,,,,,,,,,,5,8.211,3,183,2019_Apr_10_1608,Flow_endo_post,3.0.6,60.14570972,
Things just seemed to happen automatically.,,,,,,,,,,,0,11,11,21,,,,,,,,,,,,,,5,6.114,3,183,2019_Apr_10_1608,Flow_endo_post,3.0.6,60.14570972,
The experience was extremely rewarding.,,,,,,,,,,,0,12,12,19,,,,,,,,,,,,,,5,5.259,3,183,2019_Apr_10_1608,Flow_endo_post,3.0.6,60.14570972,
Time seemed to alter (either slows down or speeds up).,,,,,,,,,,,0,13,13,23,,,,,,,,,,,,,,5,1.61,3,183,2019_Apr_10_1608,Flow_endo_post,3.0.6,60.14570972,
I was challenged, but I believe my skills will allow me to meet that challenge.,,,,,,,,,,,0,14,14,9,,,,,,,,,,,,,,5,9.444,3,183,2019_Apr_10_1608,Flow_endo_post,3.0.6,60.14570972
I had total concentration.,,,,,,,,,,,0,15,15,5,,,,,,,,,,,,,,5,1.111,3,183,2019_Apr_10_1608,Flow_endo_post,3.0.6,60.14570972,
I felt just the right amount of challenge. ,,,,,,,,,,,0,16,16,11,,,,,,,,,,,,,,5,1.56,3,183,2019_Apr_10_1608,Flow_endo_post,3.0.6,60.14570972,
It was really clear to me how my performance was going.,,,,,,,,,,,0,17,17,7,,,,,,,,,,,,,,4,4.578,3,183,2019_Apr_10_1608,Flow_endo_post,3.0.6,60.14570972,
I felt as though I had everything under control.,,,,,,,,,,,0,18,18,12,,,,,,,,,,,,,,5,2.577,3,183,2019_Apr_10_1608,Flow_endo_post,3.0.6,60.14570972,
I was not concerned with how others might be evaluating me.,,,,,,,,,,,0,19,19,14,,,,,,,,,,,,,,5,1.889,3,183,2019_Apr_10_1608,Flow_endo_post,3.0.6,60.14570972,
My goals were clearly defined. ,,,,,,,,,,,0,20,20,2,,,,,,,,,,,,,,5,1.394,3,183,2019_Apr_10_1608,Flow_endo_post,3.0.6,60.14570972,
I performed automatically without having to think about it.,,,,,,,,,,,0,21,21,25,,,,,,,,,,,,,,4,2.709,3,183,2019_Apr_10_1608,Flow_endo_post,3.0.6,60.14570972,
I knew what I want to achieve.,,,,,,,,,,,0,22,22,1,,,,,,,,,,,,,,5,2.262,3,183,2019_Apr_10_1608,Flow_endo_post,3.0.6,60.14570972,
I was not worried about what others might be thinking of me.,,,,,,,,,,,0,23,23,16,,,,,,,,,,,,,,5,1.407,3,183,2019_Apr_10_1608,Flow_endo_post,3.0.6,60.14570972,
I had a strong sense of what I wanted to accomplish.,,,,,,,,,,,0,24,24,0,,,,,,,,,,,,,,5,1.259,3,183,2019_Apr_10_1608,Flow_endo_post,3.0.6,60.14570972,
The way time passed seemed to be different from normal.,,,,,,,,,,,0,25,25,24,,,,,,,,,,,,,,4,5.846,3,183,2019_Apr_10_1608,Flow_endo_post,3.0.6,60.14570972,
