Questions,Stair.thisTrialN,Stair.stepSize,Stair.intensity,Stair2.thisTrialN,Stair2.stepSize,Stair2.intensity,controlQ.thisRepN,controlQ.thisTrialN,controlQ.thisN,controlQ.thisIndex,Qs.thisRepN,Qs.thisTrialN,Qs.thisN,Qs.thisIndex,cueOri,targetXOri,targetXPos,CorrectAns,Stair.response,keyPress.rt,keyPress.rl,cueExoPos,Stair2.response,keyPress_2.rt,keyPress_2.rl,key_start.keys,key_start.rt,Quest_Ans.response,Quest_Ans.rt,Session,Participant,date,expName,psychopyVersion,frameRate,
,0,1,81,,,,,,,,,,,,180,90,4.6,right,1,0.701109741,right,,,,,,,,,2,113,2019_Apr_08_1249,Flow_endo_post,3.0.6,60.10577655,
,1,1,80,,,,,,,,,,,,0,90,4.6,right,1,0.485630397,right,,,,,,,,,2,113,2019_Apr_08_1249,Flow_endo_post,3.0.6,60.10577655,
,2,1,79,,,,,,,,,,,,180,90,4.6,right,1,0.435745971,right,,,,,,,,,2,113,2019_Apr_08_1249,Flow_endo_post,3.0.6,60.10577655,
,3,1,78,,,,,,,,,,,,0,0,4.6,right,1,0.486022559,right,,,,,,,,,2,113,2019_Apr_08_1249,Flow_endo_post,3.0.6,60.10577655,
,4,1,77,,,,,,,,,,,,180,0,-4.6,left,0,0.335182664,right,,,,,,,,,2,113,2019_Apr_08_1249,Flow_endo_post,3.0.6,60.10577655,
,5,1,78,,,,,,,,,,,,180,0,4.6,right,1,0.435575067,right,,,,,,,,,2,113,2019_Apr_08_1249,Flow_endo_post,3.0.6,60.10577655,
,6,1,78,,,,,,,,,,,,0,90,4.6,right,1,0.519440465,right,,,,,,,,,2,113,2019_Apr_08_1249,Flow_endo_post,3.0.6,60.10577655,
,7,1,78,,,,,,,,,,,,0,0,-4.6,left,0,0.285197745,right,,,,,,,,,2,113,2019_Apr_08_1249,Flow_endo_post,3.0.6,60.10577655,
,8,1,79,,,,,,,,,,,,180,90,4.6,right,0,0.636330161,left,,,,,,,,,2,113,2019_Apr_08_1249,Flow_endo_post,3.0.6,60.10577655,
,9,1,80,,,,,,,,,,,,180,0,4.6,right,1,0.33508176,right,,,,,,,,,2,113,2019_Apr_08_1249,Flow_endo_post,3.0.6,60.10577655,
,10,1,80,,,,,,,,,,,,180,90,4.6,right,1,0.421040483,right,,,,,,,,,2,113,2019_Apr_08_1249,Flow_endo_post,3.0.6,60.10577655,
,11,1,80,,,,,,,,,,,,0,0,4.6,right,1,0.435763018,right,,,,,,,,,2,113,2019_Apr_08_1249,Flow_endo_post,3.0.6,60.10577655,
,12,1,79,,,,,,,,,,,,0,90,-4.6,left,1,0.468934788,left,,,,,,,,,2,113,2019_Apr_08_1249,Flow_endo_post,3.0.6,60.10577655,
,13,1,79,,,,,,,,,,,,0,0,-4.6,left,1,0.519971545,left,,,,,,,,,2,113,2019_Apr_08_1249,Flow_endo_post,3.0.6,60.10577655,
,14,1,79,,,,,,,,,,,,0,90,4.6,right,1,0.951834674,right,,,,,,,,,2,113,2019_Apr_08_1249,Flow_endo_post,3.0.6,60.10577655,
,15,1,78,,,,,,,,,,,,180,0,4.6,right,1,0.469157174,right,,,,,,,,,2,113,2019_Apr_08_1249,Flow_endo_post,3.0.6,60.10577655,
,16,1,78,,,,,,,,,,,,180,90,4.6,right,1,0.419270131,right,,,,,,,,,2,113,2019_Apr_08_1249,Flow_endo_post,3.0.6,60.10577655,
,17,1,78,,,,,,,,,,,,180,0,-4.6,left,1,0.635428212,left,,,,,,,,,2,113,2019_Apr_08_1249,Flow_endo_post,3.0.6,60.10577655,
,18,1,77,,,,,,,,,,,,0,90,4.6,right,1,0.468714831,right,,,,,,,,,2,113,2019_Apr_08_1249,Flow_endo_post,3.0.6,60.10577655,
,19,1,77,,,,,,,,,,,,0,90,4.6,right,1,1.002813976,right,,,,,,,,,2,113,2019_Apr_08_1249,Flow_endo_post,3.0.6,60.10577655,
,20,1,77,,,,,,,,,,,,0,90,-4.6,left,1,0.718406717,left,,,,,,,,,2,113,2019_Apr_08_1249,Flow_endo_post,3.0.6,60.10577655,
,21,1,76,,,,,,,,,,,,180,0,-4.6,left,1,1.81890756,left,,,,,,,,,2,113,2019_Apr_08_1249,Flow_endo_post,3.0.6,60.10577655,
,22,1,76,,,,,,,,,,,,180,0,4.6,right,1,0.367906474,right,,,,,,,,,2,113,2019_Apr_08_1249,Flow_endo_post,3.0.6,60.10577655,
,23,1,76,,,,,,,,,,,,0,90,-4.6,left,1,0.73566481,left,,,,,,,,,2,113,2019_Apr_08_1249,Flow_endo_post,3.0.6,60.10577655,
,24,1,75,,,,,,,,,,,,0,90,4.6,right,1,0.535170302,right,,,,,,,,,2,113,2019_Apr_08_1249,Flow_endo_post,3.0.6,60.10577655,
,25,1,75,,,,,,,,,,,,180,0,4.6,right,1,0.867624991,right,,,,,,,,,2,113,2019_Apr_08_1249,Flow_endo_post,3.0.6,60.10577655,
,26,1,75,,,,,,,,,,,,0,0,-4.6,left,1,0.585824446,left,,,,,,,,,2,113,2019_Apr_08_1249,Flow_endo_post,3.0.6,60.10577655,
,27,1,74,,,,,,,,,,,,180,0,4.6,right,1,0.269105786,right,,,,,,,,,2,113,2019_Apr_08_1249,Flow_endo_post,3.0.6,60.10577655,
,28,1,74,,,,,,,,,,,,0,0,-4.6,left,1,0.3681717,left,,,,,,,,,2,113,2019_Apr_08_1249,Flow_endo_post,3.0.6,60.10577655,
,29,1,74,,,,,,,,,,,,180,90,4.6,right,1,0.435285627,right,,,,,,,,,2,113,2019_Apr_08_1249,Flow_endo_post,3.0.6,60.10577655,
,30,1,73,,,,,,,,,,,,0,0,-4.6,left,1,0.517563631,left,,,,,,,,,2,113,2019_Apr_08_1249,Flow_endo_post,3.0.6,60.10577655,
,31,1,73,,,,,,,,,,,,0,0,4.6,right,1,0.53401077,right,,,,,,,,,2,113,2019_Apr_08_1249,Flow_endo_post,3.0.6,60.10577655,
,32,1,73,,,,,,,,,,,,0,90,-4.6,left,0,0.585023939,right,,,,,,,,,2,113,2019_Apr_08_1249,Flow_endo_post,3.0.6,60.10577655,
,33,1,74,,,,,,,,,,,,0,90,4.6,right,1,0.436011296,right,,,,,,,,,2,113,2019_Apr_08_1249,Flow_endo_post,3.0.6,60.10577655,
,34,1,74,,,,,,,,,,,,0,0,-4.6,left,1,0.368394562,left,,,,,,,,,2,113,2019_Apr_08_1249,Flow_endo_post,3.0.6,60.10577655,
,35,1,74,,,,,,,,,,,,180,90,4.6,right,1,0.384473316,right,,,,,,,,,2,113,2019_Apr_08_1249,Flow_endo_post,3.0.6,60.10577655,
,36,1,73,,,,,,,,,,,,0,0,4.6,right,1,0.267905794,right,,,,,,,,,2,113,2019_Apr_08_1249,Flow_endo_post,3.0.6,60.10577655,
,37,1,73,,,,,,,,,,,,180,0,4.6,right,1,0.335154122,right,,,,,,,,,2,113,2019_Apr_08_1249,Flow_endo_post,3.0.6,60.10577655,
,38,1,73,,,,,,,,,,,,0,90,-4.6,left,1,0.401650527,left,,,,,,,,,2,113,2019_Apr_08_1249,Flow_endo_post,3.0.6,60.10577655,
,39,1,72,,,,,,,,,,,,0,90,-4.6,left,1,0.335303282,left,,,,,,,,,2,113,2019_Apr_08_1249,Flow_endo_post,3.0.6,60.10577655,
,40,1,72,,,,,,,,,,,,180,90,4.6,right,1,0.318926834,right,,,,,,,,,2,113,2019_Apr_08_1249,Flow_endo_post,3.0.6,60.10577655,
,41,1,72,,,,,,,,,,,,180,0,-4.6,left,1,0.536273135,left,,,,,,,,,2,113,2019_Apr_08_1249,Flow_endo_post,3.0.6,60.10577655,
,42,1,71,,,,,,,,,,,,180,0,4.6,right,0,0.487191257,left,,,,,,,,,2,113,2019_Apr_08_1249,Flow_endo_post,3.0.6,60.10577655,
,43,1,72,,,,,,,,,,,,0,90,-4.6,left,0,0.485559533,right,,,,,,,,,2,113,2019_Apr_08_1249,Flow_endo_post,3.0.6,60.10577655,
,44,1,73,,,,,,,,,,,,180,0,-4.6,left,1,0.585563021,left,,,,,,,,,2,113,2019_Apr_08_1249,Flow_endo_post,3.0.6,60.10577655,
,45,1,73,,,,,,,,,,,,180,0,4.6,right,1,0.335734172,right,,,,,,,,,2,113,2019_Apr_08_1249,Flow_endo_post,3.0.6,60.10577655,
,46,1,73,,,,,,,,,,,,0,0,-4.6,left,1,0.435366846,left,,,,,,,,,2,113,2019_Apr_08_1249,Flow_endo_post,3.0.6,60.10577655,
,47,1,72,,,,,,,,,,,,0,90,-4.6,left,0,0.502277519,right,,,,,,,,,2,113,2019_Apr_08_1249,Flow_endo_post,3.0.6,60.10577655,
,48,1,73,,,,,,,,,,,,180,90,-4.6,left,0,0.73494321,right,,,,,,,,,2,113,2019_Apr_08_1249,Flow_endo_post,3.0.6,60.10577655,
,49,1,74,,,,,,,,,,,,180,90,4.6,right,1,0.318788426,right,,,,,,,,,2,113,2019_Apr_08_1249,Flow_endo_post,3.0.6,60.10577655,
,50,1,74,,,,,,,,,,,,0,0,-4.6,left,1,0.402545853,left,,,,,,,,,2,113,2019_Apr_08_1249,Flow_endo_post,3.0.6,60.10577655,
,51,1,74,,,,,,,,,,,,0,0,4.6,right,1,0.270289639,right,,,,,,,,,2,113,2019_Apr_08_1249,Flow_endo_post,3.0.6,60.10577655,
,52,1,73,,,,,,,,,,,,0,90,4.6,right,1,0.302419657,right,,,,,,,,,2,113,2019_Apr_08_1249,Flow_endo_post,3.0.6,60.10577655,
,53,1,73,,,,,,,,,,,,0,90,-4.6,left,1,0.367917598,left,,,,,,,,,2,113,2019_Apr_08_1249,Flow_endo_post,3.0.6,60.10577655,
,54,1,73,,,,,,,,,,,,180,0,-4.6,left,1,0.369138908,left,,,,,,,,,2,113,2019_Apr_08_1249,Flow_endo_post,3.0.6,60.10577655,
,55,1,72,,,,,,,,,,,,180,0,4.6,right,1,0.317091836,right,,,,,,,,,2,113,2019_Apr_08_1249,Flow_endo_post,3.0.6,60.10577655,
,56,1,72,,,,,,,,,,,,0,90,4.6,right,1,0.369354657,right,,,,,,,,,2,113,2019_Apr_08_1249,Flow_endo_post,3.0.6,60.10577655,
,57,1,72,,,,,,,,,,,,0,0,-4.6,left,1,0.701711919,left,,,,,,,,,2,113,2019_Apr_08_1249,Flow_endo_post,3.0.6,60.10577655,
,58,1,71,,,,,,,,,,,,180,0,4.6,right,1,0.652194753,right,,,,,,,,,2,113,2019_Apr_08_1249,Flow_endo_post,3.0.6,60.10577655,
,59,1,71,,,,,,,,,,,,180,90,4.6,right,1,0.351765454,right,,,,,,,,,2,113,2019_Apr_08_1249,Flow_endo_post,3.0.6,60.10577655,
,60,1,71,,,,,,,,,,,,180,90,4.6,right,0,0.352020534,left,,,,,,,,,2,113,2019_Apr_08_1249,Flow_endo_post,3.0.6,60.10577655,
,61,1,72,,,,,,,,,,,,0,0,4.6,right,1,0.26811513,right,,,,,,,,,2,113,2019_Apr_08_1249,Flow_endo_post,3.0.6,60.10577655,
,62,1,72,,,,,,,,,,,,180,0,4.6,right,0,0.31883171,left,,,,,,,,,2,113,2019_Apr_08_1249,Flow_endo_post,3.0.6,60.10577655,
,63,1,73,,,,,,,,,,,,0,90,4.6,right,1,0.201687171,right,,,,,,,,,2,113,2019_Apr_08_1249,Flow_endo_post,3.0.6,60.10577655,
,64,1,73,,,,,,,,,,,,0,0,-4.6,left,0,0.302043695,right,,,,,,,,,2,113,2019_Apr_08_1249,Flow_endo_post,3.0.6,60.10577655,
,65,1,74,,,,,,,,,,,,180,0,4.6,right,0,0.319477865,left,,,,,,,,,2,113,2019_Apr_08_1249,Flow_endo_post,3.0.6,60.10577655,
,66,1,75,,,,,,,,,,,,0,90,4.6,right,1,0.502719469,right,,,,,,,,,2,113,2019_Apr_08_1249,Flow_endo_post,3.0.6,60.10577655,
,67,1,75,,,,,,,,,,,,0,90,4.6,right,1,0.520613124,right,,,,,,,,,2,113,2019_Apr_08_1249,Flow_endo_post,3.0.6,60.10577655,
,68,1,75,,,,,,,,,,,,180,0,4.6,right,1,0.301786765,right,,,,,,,,,2,113,2019_Apr_08_1249,Flow_endo_post,3.0.6,60.10577655,
,69,1,74,,,,,,,,,,,,180,90,-4.6,left,0,0.401601193,right,,,,,,,,,2,113,2019_Apr_08_1249,Flow_endo_post,3.0.6,60.10577655,
,70,1,75,,,,,,,,,,,,180,90,-4.6,left,1,0.468210485,left,,,,,,,,,2,113,2019_Apr_08_1249,Flow_endo_post,3.0.6,60.10577655,
,71,1,75,,,,,,,,,,,,180,0,4.6,right,1,0.302322352,right,,,,,,,,,2,113,2019_Apr_08_1249,Flow_endo_post,3.0.6,60.10577655,
,72,1,75,,,,,,,,,,,,180,90,-4.6,left,1,0.35141098,left,,,,,,,,,2,113,2019_Apr_08_1249,Flow_endo_post,3.0.6,60.10577655,
,73,1,74,,,,,,,,,,,,180,0,4.6,right,1,0.268759643,right,,,,,,,,,2,113,2019_Apr_08_1249,Flow_endo_post,3.0.6,60.10577655,
,74,1,74,,,,,,,,,,,,0,90,4.6,right,1,0.2019684,right,,,,,,,,,2,113,2019_Apr_08_1249,Flow_endo_post,3.0.6,60.10577655,
,75,1,74,,,,,,,,,,,,180,0,4.6,right,1,0.254619379,right,,,,,,,,,2,113,2019_Apr_08_1249,Flow_endo_post,3.0.6,60.10577655,
,76,1,73,,,,,,,,,,,,0,90,-4.6,left,0,0.35241673,right,,,,,,,,,2,113,2019_Apr_08_1249,Flow_endo_post,3.0.6,60.10577655,
,77,1,74,,,,,,,,,,,,0,0,-4.6,left,0,0.285668587,right,,,,,,,,,2,113,2019_Apr_08_1249,Flow_endo_post,3.0.6,60.10577655,
,78,1,75,,,,,,,,,,,,0,0,4.6,right,1,0.450852271,right,,,,,,,,,2,113,2019_Apr_08_1249,Flow_endo_post,3.0.6,60.10577655,
,79,1,75,,,,,,,,,,,,0,0,-4.6,left,0,0.234697779,right,,,,,,,,,2,113,2019_Apr_08_1249,Flow_endo_post,3.0.6,60.10577655,
,80,1,76,,,,,,,,,,,,0,0,-4.6,left,0,0.285582708,right,,,,,,,,,2,113,2019_Apr_08_1249,Flow_endo_post,3.0.6,60.10577655,
,81,1,77,,,,,,,,,,,,180,90,-4.6,left,0,0.267595665,right,,,,,,,,,2,113,2019_Apr_08_1249,Flow_endo_post,3.0.6,60.10577655,
,82,1,78,,,,,,,,,,,,0,0,-4.6,left,0,0.270720771,right,,,,,,,,,2,113,2019_Apr_08_1249,Flow_endo_post,3.0.6,60.10577655,
,83,1,79,,,,,,,,,,,,180,90,-4.6,left,0,0.353973644,right,,,,,,,,,2,113,2019_Apr_08_1249,Flow_endo_post,3.0.6,60.10577655,
,84,1,80,,,,,,,,,,,,0,0,-4.6,left,0,0.266848333,right,,,,,,,,,2,113,2019_Apr_08_1249,Flow_endo_post,3.0.6,60.10577655,
,85,1,81,,,,,,,,,,,,180,90,-4.6,left,0,0.316629302,right,,,,,,,,,2,113,2019_Apr_08_1249,Flow_endo_post,3.0.6,60.10577655,
,86,1,82,,,,,,,,,,,,180,90,4.6,right,1,0.234563393,right,,,,,,,,,2,113,2019_Apr_08_1249,Flow_endo_post,3.0.6,60.10577655,
,87,1,82,,,,,,,,,,,,180,90,4.6,right,1,0.30205439,right,,,,,,,,,2,113,2019_Apr_08_1249,Flow_endo_post,3.0.6,60.10577655,
,88,1,82,,,,,,,,,,,,180,0,4.6,right,1,0.335213629,right,,,,,,,,,2,113,2019_Apr_08_1249,Flow_endo_post,3.0.6,60.10577655,
,,,,0,1,81,,,,,,,,,,0,-4.6,left,,,,-4.6,1,1.304808515,left,,,,,2,113,2019_Apr_08_1249,Flow_endo_post,3.0.6,60.10577655,
,,,,1,1,80,,,,,,,,,,90,4.6,right,,,,-4.6,0,0.986600858,left,,,,,2,113,2019_Apr_08_1249,Flow_endo_post,3.0.6,60.10577655,
,,,,2,1,81,,,,,,,,,,90,4.6,right,,,,4.6,1,0.501600867,right,,,,,2,113,2019_Apr_08_1249,Flow_endo_post,3.0.6,60.10577655,
,,,,3,1,81,,,,,,,,,,0,4.6,right,,,,-4.6,1,0.484174398,right,,,,,2,113,2019_Apr_08_1249,Flow_endo_post,3.0.6,60.10577655,
,,,,4,1,81,,,,,,,,,,0,4.6,right,,,,4.6,1,0.400679558,right,,,,,2,113,2019_Apr_08_1249,Flow_endo_post,3.0.6,60.10577655,
,,,,5,1,80,,,,,,,,,,90,-4.6,left,,,,-4.6,1,0.385312727,left,,,,,2,113,2019_Apr_08_1249,Flow_endo_post,3.0.6,60.10577655,
,,,,6,1,80,,,,,,,,,,90,-4.6,left,,,,-4.6,1,0.484489183,left,,,,,2,113,2019_Apr_08_1249,Flow_endo_post,3.0.6,60.10577655,
,,,,7,1,80,,,,,,,,,,0,4.6,right,,,,4.6,1,0.3008708,right,,,,,2,113,2019_Apr_08_1249,Flow_endo_post,3.0.6,60.10577655,
,,,,8,1,79,,,,,,,,,,0,-4.6,left,,,,-4.6,1,0.31816552,left,,,,,2,113,2019_Apr_08_1249,Flow_endo_post,3.0.6,60.10577655,
,,,,9,1,79,,,,,,,,,,90,-4.6,left,,,,4.6,0,0.252237952,right,,,,,2,113,2019_Apr_08_1249,Flow_endo_post,3.0.6,60.10577655,
,,,,10,1,80,,,,,,,,,,90,4.6,right,,,,-4.6,1,0.516694198,right,,,,,2,113,2019_Apr_08_1249,Flow_endo_post,3.0.6,60.10577655,
,,,,11,1,80,,,,,,,,,,90,4.6,right,,,,-4.6,1,0.500433417,right,,,,,2,113,2019_Apr_08_1249,Flow_endo_post,3.0.6,60.10577655,
,,,,12,1,80,,,,,,,,,,0,-4.6,left,,,,-4.6,1,0.418774107,left,,,,,2,113,2019_Apr_08_1249,Flow_endo_post,3.0.6,60.10577655,
,,,,13,1,79,,,,,,,,,,0,4.6,right,,,,-4.6,1,0.453228121,right,,,,,2,113,2019_Apr_08_1249,Flow_endo_post,3.0.6,60.10577655,
,,,,14,1,79,,,,,,,,,,0,4.6,right,,,,-4.6,1,0.485181638,right,,,,,2,113,2019_Apr_08_1249,Flow_endo_post,3.0.6,60.10577655,
,,,,15,1,79,,,,,,,,,,0,-4.6,left,,,,4.6,0,0.450946908,right,,,,,2,113,2019_Apr_08_1249,Flow_endo_post,3.0.6,60.10577655,
,,,,16,1,80,,,,,,,,,,90,-4.6,left,,,,-4.6,1,0.352496191,left,,,,,2,113,2019_Apr_08_1249,Flow_endo_post,3.0.6,60.10577655,
,,,,17,1,80,,,,,,,,,,0,4.6,right,,,,-4.6,1,0.535362647,right,,,,,2,113,2019_Apr_08_1249,Flow_endo_post,3.0.6,60.10577655,
,,,,18,1,80,,,,,,,,,,0,4.6,right,,,,4.6,1,0.501675635,right,,,,,2,113,2019_Apr_08_1249,Flow_endo_post,3.0.6,60.10577655,
,,,,19,1,79,,,,,,,,,,90,-4.6,left,,,,-4.6,1,0.486111158,left,,,,,2,113,2019_Apr_08_1249,Flow_endo_post,3.0.6,60.10577655,
,,,,20,1,79,,,,,,,,,,0,4.6,right,,,,-4.6,1,0.652215187,right,,,,,2,113,2019_Apr_08_1249,Flow_endo_post,3.0.6,60.10577655,
,,,,21,1,79,,,,,,,,,,90,4.6,right,,,,4.6,1,0.486343555,right,,,,,2,113,2019_Apr_08_1249,Flow_endo_post,3.0.6,60.10577655,
,,,,22,1,78,,,,,,,,,,0,4.6,right,,,,-4.6,1,0.553689167,right,,,,,2,113,2019_Apr_08_1249,Flow_endo_post,3.0.6,60.10577655,
,,,,23,1,78,,,,,,,,,,90,4.6,right,,,,4.6,1,0.568535371,right,,,,,2,113,2019_Apr_08_1249,Flow_endo_post,3.0.6,60.10577655,
,,,,24,1,78,,,,,,,,,,0,-4.6,left,,,,4.6,0,0.599514267,right,,,,,2,113,2019_Apr_08_1249,Flow_endo_post,3.0.6,60.10577655,
,,,,25,1,79,,,,,,,,,,0,-4.6,left,,,,-4.6,1,0.351379633,left,,,,,2,113,2019_Apr_08_1249,Flow_endo_post,3.0.6,60.10577655,
,,,,26,1,79,,,,,,,,,,0,4.6,right,,,,4.6,1,0.401108141,right,,,,,2,113,2019_Apr_08_1249,Flow_endo_post,3.0.6,60.10577655,
,,,,27,1,79,,,,,,,,,,0,4.6,right,,,,-4.6,1,0.56921981,right,,,,,2,113,2019_Apr_08_1249,Flow_endo_post,3.0.6,60.10577655,
,,,,28,1,78,,,,,,,,,,0,-4.6,left,,,,4.6,0,0.46922009,right,,,,,2,113,2019_Apr_08_1249,Flow_endo_post,3.0.6,60.10577655,
,,,,29,1,79,,,,,,,,,,90,-4.6,left,,,,-4.6,1,0.318079702,left,,,,,2,113,2019_Apr_08_1249,Flow_endo_post,3.0.6,60.10577655,
,,,,30,1,79,,,,,,,,,,90,4.6,right,,,,-4.6,1,0.434381192,right,,,,,2,113,2019_Apr_08_1249,Flow_endo_post,3.0.6,60.10577655,
,,,,31,1,79,,,,,,,,,,0,4.6,right,,,,4.6,1,0.269216253,right,,,,,2,113,2019_Apr_08_1249,Flow_endo_post,3.0.6,60.10577655,
,,,,32,1,78,,,,,,,,,,90,-4.6,left,,,,4.6,0,0.234096312,right,,,,,2,113,2019_Apr_08_1249,Flow_endo_post,3.0.6,60.10577655,
,,,,33,1,79,,,,,,,,,,0,4.6,right,,,,-4.6,1,0.485732428,right,,,,,2,113,2019_Apr_08_1249,Flow_endo_post,3.0.6,60.10577655,
,,,,34,1,79,,,,,,,,,,0,4.6,right,,,,-4.6,1,0.418483907,right,,,,,2,113,2019_Apr_08_1249,Flow_endo_post,3.0.6,60.10577655,
,,,,35,1,79,,,,,,,,,,90,4.6,right,,,,4.6,1,0.285553627,right,,,,,2,113,2019_Apr_08_1249,Flow_endo_post,3.0.6,60.10577655,
,,,,36,1,78,,,,,,,,,,0,-4.6,left,,,,4.6,1,0.451840738,left,,,,,2,113,2019_Apr_08_1249,Flow_endo_post,3.0.6,60.10577655,
,,,,37,1,78,,,,,,,,,,0,4.6,right,,,,-4.6,1,0.368262659,right,,,,,2,113,2019_Apr_08_1249,Flow_endo_post,3.0.6,60.10577655,
,,,,38,1,78,,,,,,,,,,0,-4.6,left,,,,-4.6,1,0.484864547,left,,,,,2,113,2019_Apr_08_1249,Flow_endo_post,3.0.6,60.10577655,
,,,,39,1,77,,,,,,,,,,0,4.6,right,,,,4.6,1,0.368201972,right,,,,,2,113,2019_Apr_08_1249,Flow_endo_post,3.0.6,60.10577655,
,,,,40,1,77,,,,,,,,,,90,-4.6,left,,,,4.6,1,0.418142285,left,,,,,2,113,2019_Apr_08_1249,Flow_endo_post,3.0.6,60.10577655,
,,,,41,1,77,,,,,,,,,,0,-4.6,left,,,,4.6,1,0.567091113,left,,,,,2,113,2019_Apr_08_1249,Flow_endo_post,3.0.6,60.10577655,
,,,,42,1,76,,,,,,,,,,90,4.6,right,,,,4.6,1,0.300318709,right,,,,,2,113,2019_Apr_08_1249,Flow_endo_post,3.0.6,60.10577655,
,,,,43,1,76,,,,,,,,,,90,-4.6,left,,,,4.6,1,0.41868152,left,,,,,2,113,2019_Apr_08_1249,Flow_endo_post,3.0.6,60.10577655,
,,,,44,1,76,,,,,,,,,,90,4.6,right,,,,4.6,1,0.302095982,right,,,,,2,113,2019_Apr_08_1249,Flow_endo_post,3.0.6,60.10577655,
,,,,45,1,75,,,,,,,,,,0,4.6,right,,,,4.6,1,0.302260457,right,,,,,2,113,2019_Apr_08_1249,Flow_endo_post,3.0.6,60.10577655,
,,,,46,1,75,,,,,,,,,,90,4.6,right,,,,4.6,1,0.250580103,right,,,,,2,113,2019_Apr_08_1249,Flow_endo_post,3.0.6,60.10577655,
,,,,47,1,75,,,,,,,,,,90,4.6,right,,,,-4.6,1,0.452464773,right,,,,,2,113,2019_Apr_08_1249,Flow_endo_post,3.0.6,60.10577655,
,,,,48,1,74,,,,,,,,,,0,4.6,right,,,,4.6,1,0.251533719,right,,,,,2,113,2019_Apr_08_1249,Flow_endo_post,3.0.6,60.10577655,
,,,,49,1,74,,,,,,,,,,0,-4.6,left,,,,4.6,0,0.699196921,right,,,,,2,113,2019_Apr_08_1249,Flow_endo_post,3.0.6,60.10577655,
,,,,50,1,75,,,,,,,,,,90,-4.6,left,,,,-4.6,1,0.302099144,left,,,,,2,113,2019_Apr_08_1249,Flow_endo_post,3.0.6,60.10577655,
,,,,51,1,75,,,,,,,,,,0,4.6,right,,,,4.6,1,0.284519997,right,,,,,2,113,2019_Apr_08_1249,Flow_endo_post,3.0.6,60.10577655,
,,,,52,1,75,,,,,,,,,,0,4.6,right,,,,4.6,1,0.317311495,right,,,,,2,113,2019_Apr_08_1249,Flow_endo_post,3.0.6,60.10577655,
,,,,,,,,,,,,,,,,,,,,,,,,,,space,2.935733406,,,2,113,2019_Apr_08_1249,Flow_endo_post,3.0.6,60.10577655,
My state (body feelings, emotions and thoughts) during the task on the computer was similar to the state I had during my sport performance.,,,,,,,0,0,0,0,,,,,,,,,,,,,,,,,,2,4.711,2,113,2019_Apr_08_1249,Flow_endo_post,3.0.6,60.10577655
I had total concentration.,,,,,,,,,,,0,0,0,5,,,,,,,,,,,,,,3,2.19,2,113,2019_Apr_08_1249,Flow_endo_post,3.0.6,60.10577655,
I felt that I had everything under control.,,,,,,,,,,,0,1,1,13,,,,,,,,,,,,,,4,2.858,2,113,2019_Apr_08_1249,Flow_endo_post,3.0.6,60.10577655,
I had a strong sense of what I wanted to accomplish.,,,,,,,,,,,0,2,2,0,,,,,,,,,,,,,,4,2.177,2,113,2019_Apr_08_1249,Flow_endo_post,3.0.6,60.10577655,
My attention was focused entirely on what I was doing.,,,,,,,,,,,0,3,3,3,,,,,,,,,,,,,,3,2.145,2,113,2019_Apr_08_1249,Flow_endo_post,3.0.6,60.10577655,
It was really clear to me how my performance was going.,,,,,,,,,,,0,4,4,7,,,,,,,,,,,,,,5,2.854,2,113,2019_Apr_08_1249,Flow_endo_post,3.0.6,60.10577655,
The experience left me feeling great.,,,,,,,,,,,0,5,5,18,,,,,,,,,,,,,,3,2.877,2,113,2019_Apr_08_1249,Flow_endo_post,3.0.6,60.10577655,
The experience was extremely rewarding.,,,,,,,,,,,0,6,6,19,,,,,,,,,,,,,,5,1.109,2,113,2019_Apr_08_1249,Flow_endo_post,3.0.6,60.10577655,
I did things spontaneously without having to think.,,,,,,,,,,,0,7,7,22,,,,,,,,,,,,,,3,2.742,2,113,2019_Apr_08_1249,Flow_endo_post,3.0.6,60.10577655,
I was challenged, but I believe my skills will allow me to meet that challenge.,,,,,,,,,,,0,8,8,9,,,,,,,,,,,,,,4,3.006,2,113,2019_Apr_08_1249,Flow_endo_post,3.0.6,60.10577655
The way time passed seemed to be different from normal.,,,,,,,,,,,0,9,9,24,,,,,,,,,,,,,,3,3.94,2,113,2019_Apr_08_1249,Flow_endo_post,3.0.6,60.10577655,
I was not concerned with how I was presenting myself.,,,,,,,,,,,0,10,10,15,,,,,,,,,,,,,,3,2.375,2,113,2019_Apr_08_1249,Flow_endo_post,3.0.6,60.10577655,
The challenge and my skills were at an equally high level.,,,,,,,,,,,0,11,11,10,,,,,,,,,,,,,,5,4.892,2,113,2019_Apr_08_1249,Flow_endo_post,3.0.6,60.10577655,
I was not concerned with how others might be evaluating me.,,,,,,,,,,,0,12,12,14,,,,,,,,,,,,,,4,2.878,2,113,2019_Apr_08_1249,Flow_endo_post,3.0.6,60.10577655,
Time seemed to alter (either slows down or speeds up).,,,,,,,,,,,0,13,13,23,,,,,,,,,,,,,,3,4.857,2,113,2019_Apr_08_1249,Flow_endo_post,3.0.6,60.10577655,
It was no effort to keep my mind on what was happening.,,,,,,,,,,,0,14,14,4,,,,,,,,,,,,,,5,2.194,2,113,2019_Apr_08_1249,Flow_endo_post,3.0.6,60.10577655,
Things just seemed to happen automatically.,,,,,,,,,,,0,15,15,21,,,,,,,,,,,,,,3,1.776,2,113,2019_Apr_08_1249,Flow_endo_post,3.0.6,60.10577655,
I knew what I want to achieve.,,,,,,,,,,,0,16,16,1,,,,,,,,,,,,,,3,1.131,2,113,2019_Apr_08_1249,Flow_endo_post,3.0.6,60.10577655,
I felt as though I had everything under control.,,,,,,,,,,,0,17,17,12,,,,,,,,,,,,,,3,1.323,2,113,2019_Apr_08_1249,Flow_endo_post,3.0.6,60.10577655,
I had a good idea while I was performing about how well I was doing.,,,,,,,,,,,0,18,18,8,,,,,,,,,,,,,,3,2.29,2,113,2019_Apr_08_1249,Flow_endo_post,3.0.6,60.10577655,
I lost my normal awareness of time.,,,,,,,,,,,0,19,19,20,,,,,,,,,,,,,,3,1.461,2,113,2019_Apr_08_1249,Flow_endo_post,3.0.6,60.10577655,
My goals were clearly defined. ,,,,,,,,,,,0,20,20,2,,,,,,,,,,,,,,3,2.244,2,113,2019_Apr_08_1249,Flow_endo_post,3.0.6,60.10577655,
I performed automatically without having to think about it.,,,,,,,,,,,0,21,21,25,,,,,,,,,,,,,,5,1.424,2,113,2019_Apr_08_1249,Flow_endo_post,3.0.6,60.10577655,
I was not worried about what others might be thinking of me.,,,,,,,,,,,0,22,22,16,,,,,,,,,,,,,,3,3.744,2,113,2019_Apr_08_1249,Flow_endo_post,3.0.6,60.10577655,
I felt just the right amount of challenge. ,,,,,,,,,,,0,23,23,11,,,,,,,,,,,,,,3,2.143,2,113,2019_Apr_08_1249,Flow_endo_post,3.0.6,60.10577655,
I had no difficulty concentrating.,,,,,,,,,,,0,24,24,6,,,,,,,,,,,,,,4,1.462,2,113,2019_Apr_08_1249,Flow_endo_post,3.0.6,60.10577655,
I really enjoyed the experience.,,,,,,,,,,,0,25,25,17,,,,,,,,,,,,,,3,1.458,2,113,2019_Apr_08_1249,Flow_endo_post,3.0.6,60.10577655,
