Stair.thisTrialN,Stair.stepSize,Stair.intensity,Stair2.thisTrialN,Stair2.stepSize,Stair2.intensity,cueOri,targetXOri,targetXPos,CorrectAns,Stair.response,keyPress.rt,keyPress.rl,cueExoPos,Stair2.response,keyPress_2.rt,keyPress_2.rl,Time_pas_Ans.response,Time_pas_Ans.rt,Session,Participant,date,expName,psychopyVersion,frameRate,
0,1,81,,,,180,0,-4.6,left,1,3.6189123900003324,left,,,,,,,001,223,2019_Apr_03_1547,Flow_endo_pre,3.0.6,59.93511352678568,
1,1,80,,,,180,90,4.6,right,1,0.45096275899959437,right,,,,,,,001,223,2019_Apr_03_1547,Flow_endo_pre,3.0.6,59.93511352678568,
2,1,79,,,,180,90,-4.6,left,1,0.35021341500032577,left,,,,,,,001,223,2019_Apr_03_1547,Flow_endo_pre,3.0.6,59.93511352678568,
3,1,78,,,,0,90,-4.6,left,1,0.36726042899863387,left,,,,,,,001,223,2019_Apr_03_1547,Flow_endo_pre,3.0.6,59.93511352678568,
4,1,77,,,,0,90,4.6,right,1,0.28504014700047264,right,,,,,,,001,223,2019_Apr_03_1547,Flow_endo_pre,3.0.6,59.93511352678568,
5,1,76,,,,180,0,4.6,right,1,0.567349277998801,right,,,,,,,001,223,2019_Apr_03_1547,Flow_endo_pre,3.0.6,59.93511352678568,
6,1,75,,,,0,90,4.6,right,1,0.6694561429994792,right,,,,,,,001,223,2019_Apr_03_1547,Flow_endo_pre,3.0.6,59.93511352678568,
7,1,74,,,,180,90,4.6,right,1,0.7519101079997199,right,,,,,,,001,223,2019_Apr_03_1547,Flow_endo_pre,3.0.6,59.93511352678568,
8,1,73,,,,180,90,-4.6,left,1,0.5854247450006369,left,,,,,,,001,223,2019_Apr_03_1547,Flow_endo_pre,3.0.6,59.93511352678568,
9,1,72,,,,180,90,4.6,right,1,0.6517675780014542,right,,,,,,,001,223,2019_Apr_03_1547,Flow_endo_pre,3.0.6,59.93511352678568,
10,1,71,,,,0,90,-4.6,left,1,0.6209434070005955,left,,,,,,,001,223,2019_Apr_03_1547,Flow_endo_pre,3.0.6,59.93511352678568,
11,1,70,,,,180,0,4.6,right,1,0.6524255959993752,right,,,,,,,001,223,2019_Apr_03_1547,Flow_endo_pre,3.0.6,59.93511352678568,
12,1,69,,,,0,90,-4.6,left,1,0.6029691849998926,left,,,,,,,001,223,2019_Apr_03_1547,Flow_endo_pre,3.0.6,59.93511352678568,
13,1,68,,,,0,0,-4.6,left,1,0.4524904290010454,left,,,,,,,001,223,2019_Apr_03_1547,Flow_endo_pre,3.0.6,59.93511352678568,
14,1,67,,,,180,90,4.6,right,0,1.635636564999004,left,,,,,,,001,223,2019_Apr_03_1547,Flow_endo_pre,3.0.6,59.93511352678568,
15,1,68,,,,0,90,-4.6,left,1,1.2185522589988977,left,,,,,,,001,223,2019_Apr_03_1547,Flow_endo_pre,3.0.6,59.93511352678568,
16,1,68,,,,0,0,4.6,right,1,1.6021749800001999,right,,,,,,,001,223,2019_Apr_03_1547,Flow_endo_pre,3.0.6,59.93511352678568,
17,1,68,,,,180,0,-4.6,left,1,0.9025532729992847,left,,,,,,,001,223,2019_Apr_03_1547,Flow_endo_pre,3.0.6,59.93511352678568,
18,1,67,,,,0,90,4.6,right,0,0.7517576619993633,left,,,,,,,001,223,2019_Apr_03_1547,Flow_endo_pre,3.0.6,59.93511352678568,
19,1,68,,,,180,90,4.6,right,1,0.6855022439995082,right,,,,,,,001,223,2019_Apr_03_1547,Flow_endo_pre,3.0.6,59.93511352678568,
20,1,68,,,,180,90,-4.6,left,1,0.6518944939998619,left,,,,,,,001,223,2019_Apr_03_1547,Flow_endo_pre,3.0.6,59.93511352678568,
21,1,68,,,,0,90,-4.6,left,1,0.6185056330014049,left,,,,,,,001,223,2019_Apr_03_1547,Flow_endo_pre,3.0.6,59.93511352678568,
22,1,67,,,,180,0,4.6,right,0,0.985719190999589,left,,,,,,,001,223,2019_Apr_03_1547,Flow_endo_pre,3.0.6,59.93511352678568,
23,1,68,,,,180,90,-4.6,left,1,0.5698214270014432,left,,,,,,,001,223,2019_Apr_03_1547,Flow_endo_pre,3.0.6,59.93511352678568,
24,1,68,,,,0,90,-4.6,left,0,0.5357652099992265,right,,,,,,,001,223,2019_Apr_03_1547,Flow_endo_pre,3.0.6,59.93511352678568,
25,1,69,,,,180,0,-4.6,left,1,0.5184647579990269,left,,,,,,,001,223,2019_Apr_03_1547,Flow_endo_pre,3.0.6,59.93511352678568,
26,1,69,,,,0,90,4.6,right,0,1.9029746989999694,left,,,,,,,001,223,2019_Apr_03_1547,Flow_endo_pre,3.0.6,59.93511352678568,
27,1,70,,,,0,0,4.6,right,1,0.5180595530000573,right,,,,,,,001,223,2019_Apr_03_1547,Flow_endo_pre,3.0.6,59.93511352678568,
28,1,70,,,,0,0,4.6,right,1,0.5523472750010114,right,,,,,,,001,223,2019_Apr_03_1547,Flow_endo_pre,3.0.6,59.93511352678568,
29,1,70,,,,180,0,-4.6,left,1,1.3856998339997517,left,,,,,,,001,223,2019_Apr_03_1547,Flow_endo_pre,3.0.6,59.93511352678568,
30,1,69,,,,0,90,4.6,right,1,1.0687739349996264,right,,,,,,,001,223,2019_Apr_03_1547,Flow_endo_pre,3.0.6,59.93511352678568,
31,1,69,,,,0,90,-4.6,left,1,0.76915969699985,left,,,,,,,001,223,2019_Apr_03_1547,Flow_endo_pre,3.0.6,59.93511352678568,
32,1,69,,,,0,90,-4.6,left,1,0.5206505799997103,left,,,,,,,001,223,2019_Apr_03_1547,Flow_endo_pre,3.0.6,59.93511352678568,
33,1,68,,,,0,0,-4.6,left,1,0.7351849959995889,left,,,,,,,001,223,2019_Apr_03_1547,Flow_endo_pre,3.0.6,59.93511352678568,
34,1,68,,,,180,0,4.6,right,0,2.7206696969988116,left,,,,,,,001,223,2019_Apr_03_1547,Flow_endo_pre,3.0.6,59.93511352678568,
35,1,69,,,,0,0,-4.6,left,1,0.5500952929996856,left,,,,,,,001,223,2019_Apr_03_1547,Flow_endo_pre,3.0.6,59.93511352678568,
36,1,69,,,,0,0,4.6,right,1,0.5350441329992464,right,,,,,,,001,223,2019_Apr_03_1547,Flow_endo_pre,3.0.6,59.93511352678568,
37,1,69,,,,0,0,4.6,right,1,0.7853859299993928,right,,,,,,,001,223,2019_Apr_03_1547,Flow_endo_pre,3.0.6,59.93511352678568,
38,1,68,,,,0,0,4.6,right,0,1.0195774189996882,left,,,,,,,001,223,2019_Apr_03_1547,Flow_endo_pre,3.0.6,59.93511352678568,
39,1,69,,,,0,0,-4.6,left,1,0.4690664800000377,left,,,,,,,001,223,2019_Apr_03_1547,Flow_endo_pre,3.0.6,59.93511352678568,
40,1,69,,,,0,0,-4.6,left,1,0.602201038000203,left,,,,,,,001,223,2019_Apr_03_1547,Flow_endo_pre,3.0.6,59.93511352678568,
41,1,69,,,,0,90,-4.6,left,1,0.8512594149997312,left,,,,,,,001,223,2019_Apr_03_1547,Flow_endo_pre,3.0.6,59.93511352678568,
42,1,68,,,,180,0,4.6,right,1,0.4180144799993286,right,,,,,,,001,223,2019_Apr_03_1547,Flow_endo_pre,3.0.6,59.93511352678568,
43,1,68,,,,0,90,-4.6,left,1,0.8514381210006832,left,,,,,,,001,223,2019_Apr_03_1547,Flow_endo_pre,3.0.6,59.93511352678568,
44,1,68,,,,180,0,-4.6,left,1,0.8185920970008738,left,,,,,,,001,223,2019_Apr_03_1547,Flow_endo_pre,3.0.6,59.93511352678568,
45,1,67,,,,180,90,4.6,right,0,0.5841779080001288,left,,,,,,,001,223,2019_Apr_03_1547,Flow_endo_pre,3.0.6,59.93511352678568,
46,1,68,,,,180,0,-4.6,left,1,0.5355528479994973,left,,,,,,,001,223,2019_Apr_03_1547,Flow_endo_pre,3.0.6,59.93511352678568,
47,1,68,,,,0,90,4.6,right,1,0.468918806000147,right,,,,,,,001,223,2019_Apr_03_1547,Flow_endo_pre,3.0.6,59.93511352678568,
48,1,68,,,,0,0,4.6,right,1,0.6356481500006339,right,,,,,,,001,223,2019_Apr_03_1547,Flow_endo_pre,3.0.6,59.93511352678568,
49,1,67,,,,180,90,-4.6,left,1,1.2686001660003967,left,,,,,,,001,223,2019_Apr_03_1547,Flow_endo_pre,3.0.6,59.93511352678568,
50,1,67,,,,0,90,4.6,right,1,0.6355543409990787,right,,,,,,,001,223,2019_Apr_03_1547,Flow_endo_pre,3.0.6,59.93511352678568,
51,1,67,,,,0,90,-4.6,left,0,0.8002559970009315,right,,,,,,,001,223,2019_Apr_03_1547,Flow_endo_pre,3.0.6,59.93511352678568,
52,1,68,,,,180,90,-4.6,left,1,0.5537832560003153,left,,,,,,,001,223,2019_Apr_03_1547,Flow_endo_pre,3.0.6,59.93511352678568,
53,1,68,,,,0,0,4.6,right,1,1.0866807900001731,right,,,,,,,001,223,2019_Apr_03_1547,Flow_endo_pre,3.0.6,59.93511352678568,
54,1,68,,,,180,90,-4.6,left,1,0.6018016999987594,left,,,,,,,001,223,2019_Apr_03_1547,Flow_endo_pre,3.0.6,59.93511352678568,
,,,0,1,81,,90,-4.6,left,,,,4.6,1,0.717174186000193,left,,,001,223,2019_Apr_03_1547,Flow_endo_pre,3.0.6,59.93511352678568,
,,,1,1,80,,0,4.6,right,,,,-4.6,1,0.9165189279992774,right,,,001,223,2019_Apr_03_1547,Flow_endo_pre,3.0.6,59.93511352678568,
,,,2,1,79,,0,-4.6,left,,,,4.6,1,0.7354514899998321,left,,,001,223,2019_Apr_03_1547,Flow_endo_pre,3.0.6,59.93511352678568,
,,,3,1,78,,90,-4.6,left,,,,4.6,1,0.684524018999582,left,,,001,223,2019_Apr_03_1547,Flow_endo_pre,3.0.6,59.93511352678568,
,,,4,1,77,,0,-4.6,left,,,,4.6,1,0.6688810830000875,left,,,001,223,2019_Apr_03_1547,Flow_endo_pre,3.0.6,59.93511352678568,
,,,5,1,76,,0,4.6,right,,,,4.6,1,0.5523719799984974,right,,,001,223,2019_Apr_03_1547,Flow_endo_pre,3.0.6,59.93511352678568,
,,,6,1,75,,0,-4.6,left,,,,4.6,1,0.685331700999086,left,,,001,223,2019_Apr_03_1547,Flow_endo_pre,3.0.6,59.93511352678568,
,,,7,1,74,,0,-4.6,left,,,,4.6,1,0.8016373159989598,left,,,001,223,2019_Apr_03_1547,Flow_endo_pre,3.0.6,59.93511352678568,
,,,8,1,73,,0,-4.6,left,,,,-4.6,1,1.318133566999677,left,,,001,223,2019_Apr_03_1547,Flow_endo_pre,3.0.6,59.93511352678568,
,,,9,1,72,,0,4.6,right,,,,-4.6,1,1.0036414220012375,right,,,001,223,2019_Apr_03_1547,Flow_endo_pre,3.0.6,59.93511352678568,
,,,10,1,71,,0,-4.6,left,,,,-4.6,1,0.49911473199972534,left,,,001,223,2019_Apr_03_1547,Flow_endo_pre,3.0.6,59.93511352678568,
,,,11,1,70,,90,4.6,right,,,,-4.6,0,1.2030963729994255,left,,,001,223,2019_Apr_03_1547,Flow_endo_pre,3.0.6,59.93511352678568,
,,,12,1,71,,0,4.6,right,,,,4.6,1,0.9186005770006886,right,,,001,223,2019_Apr_03_1547,Flow_endo_pre,3.0.6,59.93511352678568,
,,,13,1,71,,0,4.6,right,,,,-4.6,0,2.5179133040001034,left,,,001,223,2019_Apr_03_1547,Flow_endo_pre,3.0.6,59.93511352678568,
,,,14,1,72,,90,-4.6,left,,,,4.6,1,0.9198571830002038,left,,,001,223,2019_Apr_03_1547,Flow_endo_pre,3.0.6,59.93511352678568,
,,,15,1,72,,0,4.6,right,,,,4.6,1,1.2696508650005853,right,,,001,223,2019_Apr_03_1547,Flow_endo_pre,3.0.6,59.93511352678568,
,,,16,1,72,,90,4.6,right,,,,-4.6,0,1.1340071619997616,left,,,001,223,2019_Apr_03_1547,Flow_endo_pre,3.0.6,59.93511352678568,
,,,17,1,73,,0,-4.6,left,,,,-4.6,1,0.7189528969993262,left,,,001,223,2019_Apr_03_1547,Flow_endo_pre,3.0.6,59.93511352678568,
,,,18,1,73,,0,-4.6,left,,,,-4.6,1,0.6021552740003244,left,,,001,223,2019_Apr_03_1547,Flow_endo_pre,3.0.6,59.93511352678568,
,,,19,1,73,,90,4.6,right,,,,-4.6,0,1.1520625060002203,left,,,001,223,2019_Apr_03_1547,Flow_endo_pre,3.0.6,59.93511352678568,
,,,20,1,74,,0,-4.6,left,,,,4.6,0,1.5002921619998233,right,,,001,223,2019_Apr_03_1547,Flow_endo_pre,3.0.6,59.93511352678568,
,,,21,1,75,,0,4.6,right,,,,4.6,1,1.2501230300003954,right,,,001,223,2019_Apr_03_1547,Flow_endo_pre,3.0.6,59.93511352678568,
,,,22,1,75,,0,-4.6,left,,,,-4.6,1,0.6366961859985167,left,,,001,223,2019_Apr_03_1547,Flow_endo_pre,3.0.6,59.93511352678568,
,,,23,1,75,,90,-4.6,left,,,,4.6,1,1.6520369319987367,left,,,001,223,2019_Apr_03_1547,Flow_endo_pre,3.0.6,59.93511352678568,
,,,24,1,74,,90,-4.6,left,,,,4.6,1,1.619014686999435,left,,,001,223,2019_Apr_03_1547,Flow_endo_pre,3.0.6,59.93511352678568,
,,,25,1,74,,0,4.6,right,,,,-4.6,1,0.7001989630007301,right,,,001,223,2019_Apr_03_1547,Flow_endo_pre,3.0.6,59.93511352678568,
,,,26,1,74,,0,-4.6,left,,,,4.6,1,0.6690172500002518,left,,,001,223,2019_Apr_03_1547,Flow_endo_pre,3.0.6,59.93511352678568,
,,,27,1,73,,90,-4.6,left,,,,4.6,1,0.6853906579999602,left,,,001,223,2019_Apr_03_1547,Flow_endo_pre,3.0.6,59.93511352678568,
,,,28,1,73,,0,4.6,right,,,,-4.6,1,0.5184720760007622,right,,,001,223,2019_Apr_03_1547,Flow_endo_pre,3.0.6,59.93511352678568,
,,,29,1,73,,0,4.6,right,,,,-4.6,1,0.6037473279993719,right,,,001,223,2019_Apr_03_1547,Flow_endo_pre,3.0.6,59.93511352678568,
,,,30,1,72,,90,4.6,right,,,,4.6,1,0.7356132530003379,right,,,001,223,2019_Apr_03_1547,Flow_endo_pre,3.0.6,59.93511352678568,
,,,31,1,72,,90,-4.6,left,,,,-4.6,1,0.5530652790002932,left,,,001,223,2019_Apr_03_1547,Flow_endo_pre,3.0.6,59.93511352678568,
,,,32,1,72,,90,4.6,right,,,,-4.6,1,1.1709333630005858,right,,,001,223,2019_Apr_03_1547,Flow_endo_pre,3.0.6,59.93511352678568,
,,,33,1,71,,0,4.6,right,,,,4.6,1,0.7853756730000896,right,,,001,223,2019_Apr_03_1547,Flow_endo_pre,3.0.6,59.93511352678568,
,,,34,1,71,,0,-4.6,left,,,,-4.6,1,0.5527507750011864,left,,,001,223,2019_Apr_03_1547,Flow_endo_pre,3.0.6,59.93511352678568,
,,,35,1,71,,90,-4.6,left,,,,4.6,1,1.0842324029999872,left,,,001,223,2019_Apr_03_1547,Flow_endo_pre,3.0.6,59.93511352678568,
,,,36,1,70,,90,4.6,right,,,,-4.6,0,0.7349127640009101,left,,,001,223,2019_Apr_03_1547,Flow_endo_pre,3.0.6,59.93511352678568,
,,,37,1,71,,90,4.6,right,,,,-4.6,1,0.6356680960016092,right,,,001,223,2019_Apr_03_1547,Flow_endo_pre,3.0.6,59.93511352678568,
,,,38,1,71,,0,4.6,right,,,,4.6,1,0.583100284999091,right,,,001,223,2019_Apr_03_1547,Flow_endo_pre,3.0.6,59.93511352678568,
,,,39,1,71,,0,-4.6,left,,,,4.6,1,0.6019208100005926,left,,,001,223,2019_Apr_03_1547,Flow_endo_pre,3.0.6,59.93511352678568,
,,,40,1,70,,0,4.6,right,,,,-4.6,0,1.235498842999732,left,,,001,223,2019_Apr_03_1547,Flow_endo_pre,3.0.6,59.93511352678568,
,,,41,1,71,,90,4.6,right,,,,4.6,1,0.4363844150011573,right,,,001,223,2019_Apr_03_1547,Flow_endo_pre,3.0.6,59.93511352678568,
,,,42,1,71,,90,-4.6,left,,,,4.6,1,0.786052022000149,left,,,001,223,2019_Apr_03_1547,Flow_endo_pre,3.0.6,59.93511352678568,
,,,43,1,71,,0,4.6,right,,,,-4.6,1,0.7688507790007861,right,,,001,223,2019_Apr_03_1547,Flow_endo_pre,3.0.6,59.93511352678568,
,,,44,1,70,,0,4.6,right,,,,4.6,1,0.45062778600004094,right,,,001,223,2019_Apr_03_1547,Flow_endo_pre,3.0.6,59.93511352678568,
,,,45,1,70,,0,-4.6,left,,,,-4.6,1,0.7524111999991874,left,,,001,223,2019_Apr_03_1547,Flow_endo_pre,3.0.6,59.93511352678568,
,,,46,1,70,,90,-4.6,left,,,,-4.6,1,0.6354102670011343,left,,,001,223,2019_Apr_03_1547,Flow_endo_pre,3.0.6,59.93511352678568,
,,,47,1,69,,0,4.6,right,,,,-4.6,1,0.8345330089996423,right,,,001,223,2019_Apr_03_1547,Flow_endo_pre,3.0.6,59.93511352678568,
,,,48,1,69,,90,-4.6,left,,,,-4.6,1,0.41810515399993164,left,,,001,223,2019_Apr_03_1547,Flow_endo_pre,3.0.6,59.93511352678568,
,,,49,1,69,,90,-4.6,left,,,,-4.6,1,0.7703528169986384,left,,,001,223,2019_Apr_03_1547,Flow_endo_pre,3.0.6,59.93511352678568,
,,,50,1,68,,0,-4.6,left,,,,-4.6,1,0.5366624939997564,left,,,001,223,2019_Apr_03_1547,Flow_endo_pre,3.0.6,59.93511352678568,
,,,51,1,68,,0,-4.6,left,,,,-4.6,1,0.43681510199894547,left,,,001,223,2019_Apr_03_1547,Flow_endo_pre,3.0.6,59.93511352678568,
,,,52,1,68,,0,4.6,right,,,,4.6,1,0.4522755079997296,right,,,001,223,2019_Apr_03_1547,Flow_endo_pre,3.0.6,59.93511352678568,
,,,53,1,67,,0,-4.6,left,,,,-4.6,1,0.4177923959996406,left,,,001,223,2019_Apr_03_1547,Flow_endo_pre,3.0.6,59.93511352678568,
,,,54,1,67,,0,-4.6,left,,,,-4.6,1,0.484810751000623,left,,,001,223,2019_Apr_03_1547,Flow_endo_pre,3.0.6,59.93511352678568,
,,,55,1,67,,0,-4.6,left,,,,-4.6,1,0.6197659859990381,left,,,001,223,2019_Apr_03_1547,Flow_endo_pre,3.0.6,59.93511352678568,
,,,56,1,66,,0,4.6,right,,,,4.6,1,0.38384493899866357,right,,,001,223,2019_Apr_03_1547,Flow_endo_pre,3.0.6,59.93511352678568,
,,,57,1,66,,0,4.6,right,,,,-4.6,0,0.45226924500093446,left,,,001,223,2019_Apr_03_1547,Flow_endo_pre,3.0.6,59.93511352678568,
,,,58,1,67,,90,4.6,right,,,,4.6,1,0.41841659099918616,right,,,001,223,2019_Apr_03_1547,Flow_endo_pre,3.0.6,59.93511352678568,
,,,59,1,67,,90,4.6,right,,,,4.6,1,0.6517395060000126,right,,,001,223,2019_Apr_03_1547,Flow_endo_pre,3.0.6,59.93511352678568,
,,,60,1,67,,90,-4.6,left,,,,-4.6,1,0.6021438030002173,left,,,001,223,2019_Apr_03_1547,Flow_endo_pre,3.0.6,59.93511352678568,
,,,61,1,66,,0,4.6,right,,,,4.6,1,0.3687747690000833,right,,,001,223,2019_Apr_03_1547,Flow_endo_pre,3.0.6,59.93511352678568,
,,,62,1,66,,90,-4.6,left,,,,4.6,1,1.2353114550005557,left,,,001,223,2019_Apr_03_1547,Flow_endo_pre,3.0.6,59.93511352678568,
,,,63,1,66,,0,4.6,right,,,,4.6,1,0.4354738029996952,right,,,001,223,2019_Apr_03_1547,Flow_endo_pre,3.0.6,59.93511352678568,
,,,64,1,65,,90,4.6,right,,,,4.6,1,0.9522689540008287,right,,,001,223,2019_Apr_03_1547,Flow_endo_pre,3.0.6,59.93511352678568,
,,,65,1,65,,0,-4.6,left,,,,-4.6,1,0.36846389200036356,left,,,001,223,2019_Apr_03_1547,Flow_endo_pre,3.0.6,59.93511352678568,
,,,66,1,65,,0,-4.6,left,,,,4.6,0,1.8866056520000711,right,,,001,223,2019_Apr_03_1547,Flow_endo_pre,3.0.6,59.93511352678568,
,,,67,1,66,,0,-4.6,left,,,,4.6,0,1.2861993259994051,right,,,001,223,2019_Apr_03_1547,Flow_endo_pre,3.0.6,59.93511352678568,
,,,68,1,67,,0,-4.6,left,,,,-4.6,1,0.7193317580004077,left,,,001,223,2019_Apr_03_1547,Flow_endo_pre,3.0.6,59.93511352678568,
,,,69,1,67,,90,-4.6,left,,,,4.6,0,0.5012549029997899,right,,,001,223,2019_Apr_03_1547,Flow_endo_pre,3.0.6,59.93511352678568,
,,,70,1,68,,0,-4.6,left,,,,-4.6,1,0.6017965570008528,left,,,001,223,2019_Apr_03_1547,Flow_endo_pre,3.0.6,59.93511352678568,
,,,71,1,68,,90,4.6,right,,,,-4.6,1,1.135484375001397,right,,,001,223,2019_Apr_03_1547,Flow_endo_pre,3.0.6,59.93511352678568,
,,,72,1,68,,0,4.6,right,,,,-4.6,0,0.9355735669996648,left,,,001,223,2019_Apr_03_1547,Flow_endo_pre,3.0.6,59.93511352678568,
,,,73,1,69,,0,-4.6,left,,,,4.6,1,0.8192519449985411,left,,,001,223,2019_Apr_03_1547,Flow_endo_pre,3.0.6,59.93511352678568,
,,,74,1,69,,0,4.6,right,,,,-4.6,0,1.6349934139998368,left,,,001,223,2019_Apr_03_1547,Flow_endo_pre,3.0.6,59.93511352678568,
,,,75,1,70,,0,-4.6,left,,,,-4.6,1,0.668477723000251,left,,,001,223,2019_Apr_03_1547,Flow_endo_pre,3.0.6,59.93511352678568,
,,,76,1,70,,90,-4.6,left,,,,-4.6,1,0.6515167339985055,left,,,001,223,2019_Apr_03_1547,Flow_endo_pre,3.0.6,59.93511352678568,
,,,77,1,70,,0,-4.6,left,,,,-4.6,1,0.6177822380013822,left,,,001,223,2019_Apr_03_1547,Flow_endo_pre,3.0.6,59.93511352678568,
,,,78,1,69,,0,4.6,right,,,,-4.6,0,1.7529689900002268,left,,,001,223,2019_Apr_03_1547,Flow_endo_pre,3.0.6,59.93511352678568,
,,,79,1,70,,0,4.6,right,,,,-4.6,1,0.6845963280011347,right,,,001,223,2019_Apr_03_1547,Flow_endo_pre,3.0.6,59.93511352678568,
,,,80,1,70,,0,-4.6,left,,,,4.6,1,0.7349536980000266,left,,,001,223,2019_Apr_03_1547,Flow_endo_pre,3.0.6,59.93511352678568,
,,,81,1,70,,90,-4.6,left,,,,-4.6,1,1.3862020450014825,left,,,001,223,2019_Apr_03_1547,Flow_endo_pre,3.0.6,59.93511352678568,
,,,82,1,69,,0,-4.6,left,,,,-4.6,1,1.1520416309995198,left,,,001,223,2019_Apr_03_1547,Flow_endo_pre,3.0.6,59.93511352678568,
,,,83,1,69,,90,-4.6,left,,,,4.6,0,0.4023329770006967,right,,,001,223,2019_Apr_03_1547,Flow_endo_pre,3.0.6,59.93511352678568,
,,,84,1,70,,0,4.6,right,,,,-4.6,1,0.8183765329995367,right,,,001,223,2019_Apr_03_1547,Flow_endo_pre,3.0.6,59.93511352678568,
,,,85,1,70,,0,4.6,right,,,,4.6,1,0.7535541390006983,right,,,001,223,2019_Apr_03_1547,Flow_endo_pre,3.0.6,59.93511352678568,
,,,86,1,70,,0,-4.6,left,,,,4.6,1,0.601807639000981,left,,,001,223,2019_Apr_03_1547,Flow_endo_pre,3.0.6,59.93511352678568,
,,,,,,,,,,,,,,,,,Monday,13.04,001,223,2019_Apr_03_1547,Flow_endo_pre,3.0.6,59.93511352678568,
