Questions,Stair.thisTrialN,Stair.stepSize,Stair.intensity,Stair2.thisTrialN,Stair2.stepSize,Stair2.intensity,controlQ.thisRepN,controlQ.thisTrialN,controlQ.thisN,controlQ.thisIndex,Qs.thisRepN,Qs.thisTrialN,Qs.thisN,Qs.thisIndex,cueOri,targetXOri,targetXPos,CorrectAns,Stair.response,keyPress.rt,keyPress.rl,cueExoPos,Stair2.response,keyPress_2.rt,keyPress_2.rl,key_start.keys,key_start.rt,Quest_Ans.response,Quest_Ans.rt,Session,Participant,date,expName,psychopyVersion,frameRate,
,0,1,81,,,,,,,,,,,,0,0,-4.6,left,1,0.816737299,left,,,,,,,,,3,24,2016_Jan_09_1856,Flow_endo_post,3.0.5,60.11470198,
,1,1,80,,,,,,,,,,,,0,90,4.6,right,1,0.533990701,right,,,,,,,,,3,24,2016_Jan_09_1856,Flow_endo_post,3.0.5,60.11470198,
,2,1,79,,,,,,,,,,,,180,0,4.6,right,1,0.583844801,right,,,,,,,,,3,24,2016_Jan_09_1856,Flow_endo_post,3.0.5,60.11470198,
,3,1,78,,,,,,,,,,,,0,90,4.6,right,1,0.600469956,right,,,,,,,,,3,24,2016_Jan_09_1856,Flow_endo_post,3.0.5,60.11470198,
,4,1,77,,,,,,,,,,,,0,90,4.6,right,1,0.517336885,right,,,,,,,,,3,24,2016_Jan_09_1856,Flow_endo_post,3.0.5,60.11470198,
,5,1,76,,,,,,,,,,,,180,0,-4.6,left,1,0.467443843,left,,,,,,,,,3,24,2016_Jan_09_1856,Flow_endo_post,3.0.5,60.11470198,
,6,1,75,,,,,,,,,,,,0,0,4.6,right,1,0.500709767,right,,,,,,,,,3,24,2016_Jan_09_1856,Flow_endo_post,3.0.5,60.11470198,
,7,1,74,,,,,,,,,,,,180,0,4.6,right,1,0.450667117,right,,,,,,,,,3,24,2016_Jan_09_1856,Flow_endo_post,3.0.5,60.11470198,
,8,1,73,,,,,,,,,,,,0,90,4.6,right,1,0.467475807,right,,,,,,,,,3,24,2016_Jan_09_1856,Flow_endo_post,3.0.5,60.11470198,
,9,1,72,,,,,,,,,,,,180,90,4.6,right,1,0.434249735,right,,,,,,,,,3,24,2016_Jan_09_1856,Flow_endo_post,3.0.5,60.11470198,
,10,1,71,,,,,,,,,,,,180,90,4.6,right,1,0.484055062,right,,,,,,,,,3,24,2016_Jan_09_1856,Flow_endo_post,3.0.5,60.11470198,
,11,1,70,,,,,,,,,,,,0,90,4.6,right,1,0.517134538,right,,,,,,,,,3,24,2016_Jan_09_1856,Flow_endo_post,3.0.5,60.11470198,
,12,1,69,,,,,,,,,,,,180,0,-4.6,left,1,0.565970233,left,,,,,,,,,3,24,2016_Jan_09_1856,Flow_endo_post,3.0.5,60.11470198,
,13,1,68,,,,,,,,,,,,0,0,-4.6,left,1,0.68363735,left,,,,,,,,,3,24,2016_Jan_09_1856,Flow_endo_post,3.0.5,60.11470198,
,14,1,67,,,,,,,,,,,,180,0,-4.6,left,1,0.517057651,left,,,,,,,,,3,24,2016_Jan_09_1856,Flow_endo_post,3.0.5,60.11470198,
,15,1,66,,,,,,,,,,,,0,90,-4.6,left,1,0.550635068,left,,,,,,,,,3,24,2016_Jan_09_1856,Flow_endo_post,3.0.5,60.11470198,
,16,1,65,,,,,,,,,,,,180,90,4.6,right,0,0.949310944,left,,,,,,,,,3,24,2016_Jan_09_1856,Flow_endo_post,3.0.5,60.11470198,
,17,1,66,,,,,,,,,,,,180,90,-4.6,left,1,0.633793621,left,,,,,,,,,3,24,2016_Jan_09_1856,Flow_endo_post,3.0.5,60.11470198,
,18,1,66,,,,,,,,,,,,0,90,-4.6,left,1,0.500724018,left,,,,,,,,,3,24,2016_Jan_09_1856,Flow_endo_post,3.0.5,60.11470198,
,19,1,66,,,,,,,,,,,,0,0,4.6,right,1,1.148933062,right,,,,,,,,,3,24,2016_Jan_09_1856,Flow_endo_post,3.0.5,60.11470198,
,20,1,65,,,,,,,,,,,,0,0,-4.6,left,1,0.532702559,left,,,,,,,,,3,24,2016_Jan_09_1856,Flow_endo_post,3.0.5,60.11470198,
,21,1,65,,,,,,,,,,,,0,0,-4.6,left,1,0.700229136,left,,,,,,,,,3,24,2016_Jan_09_1856,Flow_endo_post,3.0.5,60.11470198,
,22,1,65,,,,,,,,,,,,180,0,-4.6,left,1,0.666972675,left,,,,,,,,,3,24,2016_Jan_09_1856,Flow_endo_post,3.0.5,60.11470198,
,23,1,65,,,,,,,,,,,,0,90,-4.6,left,1,1.11560212,left,,,,,,,,,3,24,2016_Jan_09_1856,Flow_endo_post,3.0.5,60.11470198,
,24,1,65,,,,,,,,,,,,0,0,4.6,right,0,0.500545192,left,,,,,,,,,3,24,2016_Jan_09_1856,Flow_endo_post,3.0.5,60.11470198,
,25,1,66,,,,,,,,,,,,180,0,4.6,right,0,0.565929062,left,,,,,,,,,3,24,2016_Jan_09_1856,Flow_endo_post,3.0.5,60.11470198,
,26,1,67,,,,,,,,,,,,0,90,4.6,right,0,0.633770362,left,,,,,,,,,3,24,2016_Jan_09_1856,Flow_endo_post,3.0.5,60.11470198,
,27,1,68,,,,,,,,,,,,0,90,4.6,right,0,0.450842553,left,,,,,,,,,3,24,2016_Jan_09_1856,Flow_endo_post,3.0.5,60.11470198,
,28,1,69,,,,,,,,,,,,0,0,-4.6,left,1,1.182440775,left,,,,,,,,,3,24,2016_Jan_09_1856,Flow_endo_post,3.0.5,60.11470198,
,29,1,69,,,,,,,,,,,,180,0,4.6,right,1,0.633732762,right,,,,,,,,,3,24,2016_Jan_09_1856,Flow_endo_post,3.0.5,60.11470198,
,30,1,69,,,,,,,,,,,,0,90,4.6,right,1,1.431726518,right,,,,,,,,,3,24,2016_Jan_09_1856,Flow_endo_post,3.0.5,60.11470198,
,31,1,68,,,,,,,,,,,,180,0,-4.6,left,1,0.600462171,left,,,,,,,,,3,24,2016_Jan_09_1856,Flow_endo_post,3.0.5,60.11470198,
,32,1,68,,,,,,,,,,,,0,0,-4.6,left,1,0.733269442,left,,,,,,,,,3,24,2016_Jan_09_1856,Flow_endo_post,3.0.5,60.11470198,
,33,1,68,,,,,,,,,,,,0,90,4.6,right,0,0.74991847,left,,,,,,,,,3,24,2016_Jan_09_1856,Flow_endo_post,3.0.5,60.11470198,
,34,1,69,,,,,,,,,,,,180,90,-4.6,left,1,0.534079787,left,,,,,,,,,3,24,2016_Jan_09_1856,Flow_endo_post,3.0.5,60.11470198,
,35,1,69,,,,,,,,,,,,180,0,-4.6,left,1,0.467456233,left,,,,,,,,,3,24,2016_Jan_09_1856,Flow_endo_post,3.0.5,60.11470198,
,36,1,69,,,,,,,,,,,,180,0,-4.6,left,1,0.449555754,left,,,,,,,,,3,24,2016_Jan_09_1856,Flow_endo_post,3.0.5,60.11470198,
,37,1,68,,,,,,,,,,,,0,90,4.6,right,0,0.433818855,left,,,,,,,,,3,24,2016_Jan_09_1856,Flow_endo_post,3.0.5,60.11470198,
,38,1,69,,,,,,,,,,,,0,0,-4.6,left,1,0.50074196,left,,,,,,,,,3,24,2016_Jan_09_1856,Flow_endo_post,3.0.5,60.11470198,
,39,1,69,,,,,,,,,,,,180,90,4.6,right,0,0.500480093,left,,,,,,,,,3,24,2016_Jan_09_1856,Flow_endo_post,3.0.5,60.11470198,
,40,1,70,,,,,,,,,,,,180,90,4.6,right,1,0.916378423,right,,,,,,,,,3,24,2016_Jan_09_1856,Flow_endo_post,3.0.5,60.11470198,
,41,1,70,,,,,,,,,,,,0,90,-4.6,left,1,0.599188364,left,,,,,,,,,3,24,2016_Jan_09_1856,Flow_endo_post,3.0.5,60.11470198,
,42,1,70,,,,,,,,,,,,180,0,-4.6,left,1,0.583974228,left,,,,,,,,,3,24,2016_Jan_09_1856,Flow_endo_post,3.0.5,60.11470198,
,43,1,69,,,,,,,,,,,,180,0,-4.6,left,1,0.500797989,left,,,,,,,,,3,24,2016_Jan_09_1856,Flow_endo_post,3.0.5,60.11470198,
,44,1,69,,,,,,,,,,,,180,90,4.6,right,1,0.617087118,right,,,,,,,,,3,24,2016_Jan_09_1856,Flow_endo_post,3.0.5,60.11470198,
,45,1,69,,,,,,,,,,,,180,0,4.6,right,0,2.113552692,left,,,,,,,,,3,24,2016_Jan_09_1856,Flow_endo_post,3.0.5,60.11470198,
,46,1,70,,,,,,,,,,,,0,0,4.6,right,0,1.71427656,left,,,,,,,,,3,24,2016_Jan_09_1856,Flow_endo_post,3.0.5,60.11470198,
,47,1,71,,,,,,,,,,,,180,90,-4.6,left,1,0.816616629,left,,,,,,,,,3,24,2016_Jan_09_1856,Flow_endo_post,3.0.5,60.11470198,
,48,1,71,,,,,,,,,,,,180,90,4.6,right,1,0.69886527,right,,,,,,,,,3,24,2016_Jan_09_1856,Flow_endo_post,3.0.5,60.11470198,
,49,1,71,,,,,,,,,,,,0,90,4.6,right,1,0.583968756,right,,,,,,,,,3,24,2016_Jan_09_1856,Flow_endo_post,3.0.5,60.11470198,
,50,1,70,,,,,,,,,,,,180,0,4.6,right,1,1.731314163,right,,,,,,,,,3,24,2016_Jan_09_1856,Flow_endo_post,3.0.5,60.11470198,
,51,1,70,,,,,,,,,,,,180,90,4.6,right,1,0.51730861,right,,,,,,,,,3,24,2016_Jan_09_1856,Flow_endo_post,3.0.5,60.11470198,
,52,1,70,,,,,,,,,,,,180,0,4.6,right,1,0.783382189,right,,,,,,,,,3,24,2016_Jan_09_1856,Flow_endo_post,3.0.5,60.11470198,
,53,1,69,,,,,,,,,,,,0,90,-4.6,left,1,0.450705839,left,,,,,,,,,3,24,2016_Jan_09_1856,Flow_endo_post,3.0.5,60.11470198,
,54,1,69,,,,,,,,,,,,0,90,-4.6,left,1,0.484075452,left,,,,,,,,,3,24,2016_Jan_09_1856,Flow_endo_post,3.0.5,60.11470198,
,55,1,69,,,,,,,,,,,,0,0,4.6,right,0,0.733377377,left,,,,,,,,,3,24,2016_Jan_09_1856,Flow_endo_post,3.0.5,60.11470198,
,56,1,70,,,,,,,,,,,,0,90,-4.6,left,0,1.032794017,right,,,,,,,,,3,24,2016_Jan_09_1856,Flow_endo_post,3.0.5,60.11470198,
,57,1,71,,,,,,,,,,,,0,0,-4.6,left,1,0.866504347,left,,,,,,,,,3,24,2016_Jan_09_1856,Flow_endo_post,3.0.5,60.11470198,
,58,1,71,,,,,,,,,,,,180,0,4.6,right,1,0.517345188,right,,,,,,,,,3,24,2016_Jan_09_1856,Flow_endo_post,3.0.5,60.11470198,
,59,1,71,,,,,,,,,,,,180,90,4.6,right,0,1.531606699,left,,,,,,,,,3,24,2016_Jan_09_1856,Flow_endo_post,3.0.5,60.11470198,
,60,1,72,,,,,,,,,,,,180,90,4.6,right,0,1.348593306,left,,,,,,,,,3,24,2016_Jan_09_1856,Flow_endo_post,3.0.5,60.11470198,
,61,1,73,,,,,,,,,,,,0,0,4.6,right,1,0.966176625,right,,,,,,,,,3,24,2016_Jan_09_1856,Flow_endo_post,3.0.5,60.11470198,
,62,1,73,,,,,,,,,,,,180,0,4.6,right,1,0.567095332,right,,,,,,,,,3,24,2016_Jan_09_1856,Flow_endo_post,3.0.5,60.11470198,
,63,1,73,,,,,,,,,,,,180,0,4.6,right,1,0.500720554,right,,,,,,,,,3,24,2016_Jan_09_1856,Flow_endo_post,3.0.5,60.11470198,
,64,1,72,,,,,,,,,,,,0,90,-4.6,left,1,0.515964425,left,,,,,,,,,3,24,2016_Jan_09_1856,Flow_endo_post,3.0.5,60.11470198,
,65,1,72,,,,,,,,,,,,180,90,-4.6,left,1,0.716861883,left,,,,,,,,,3,24,2016_Jan_09_1856,Flow_endo_post,3.0.5,60.11470198,
,66,1,72,,,,,,,,,,,,180,0,4.6,right,1,0.482808251,right,,,,,,,,,3,24,2016_Jan_09_1856,Flow_endo_post,3.0.5,60.11470198,
,67,1,71,,,,,,,,,,,,180,90,4.6,right,1,0.417576786,right,,,,,,,,,3,24,2016_Jan_09_1856,Flow_endo_post,3.0.5,60.11470198,
,68,1,71,,,,,,,,,,,,180,90,-4.6,left,1,0.982650863,left,,,,,,,,,3,24,2016_Jan_09_1856,Flow_endo_post,3.0.5,60.11470198,
,69,1,71,,,,,,,,,,,,180,0,-4.6,left,1,0.633749334,left,,,,,,,,,3,24,2016_Jan_09_1856,Flow_endo_post,3.0.5,60.11470198,
,70,1,70,,,,,,,,,,,,0,0,4.6,right,1,1.066090238,right,,,,,,,,,3,24,2016_Jan_09_1856,Flow_endo_post,3.0.5,60.11470198,
,71,1,70,,,,,,,,,,,,180,0,4.6,right,1,0.683300276,right,,,,,,,,,3,24,2016_Jan_09_1856,Flow_endo_post,3.0.5,60.11470198,
,72,1,70,,,,,,,,,,,,180,0,-4.6,left,1,0.567207973,left,,,,,,,,,3,24,2016_Jan_09_1856,Flow_endo_post,3.0.5,60.11470198,
,73,1,69,,,,,,,,,,,,0,0,-4.6,left,1,0.716974526,left,,,,,,,,,3,24,2016_Jan_09_1856,Flow_endo_post,3.0.5,60.11470198,
,74,1,69,,,,,,,,,,,,180,0,4.6,right,1,0.500450583,right,,,,,,,,,3,24,2016_Jan_09_1856,Flow_endo_post,3.0.5,60.11470198,
,75,1,69,,,,,,,,,,,,180,90,-4.6,left,1,1.680946179,left,,,,,,,,,3,24,2016_Jan_09_1856,Flow_endo_post,3.0.5,60.11470198,
,76,1,68,,,,,,,,,,,,180,90,-4.6,left,1,0.533853857,left,,,,,,,,,3,24,2016_Jan_09_1856,Flow_endo_post,3.0.5,60.11470198,
,77,1,68,,,,,,,,,,,,180,0,4.6,right,1,0.616970645,right,,,,,,,,,3,24,2016_Jan_09_1856,Flow_endo_post,3.0.5,60.11470198,
,78,1,68,,,,,,,,,,,,0,0,-4.6,left,1,0.583542634,left,,,,,,,,,3,24,2016_Jan_09_1856,Flow_endo_post,3.0.5,60.11470198,
,79,1,67,,,,,,,,,,,,0,90,-4.6,left,0,0.9827195,right,,,,,,,,,3,24,2016_Jan_09_1856,Flow_endo_post,3.0.5,60.11470198,
,80,1,68,,,,,,,,,,,,0,90,-4.6,left,1,0.516027669,left,,,,,,,,,3,24,2016_Jan_09_1856,Flow_endo_post,3.0.5,60.11470198,
,81,1,68,,,,,,,,,,,,180,90,-4.6,left,1,0.583730303,left,,,,,,,,,3,24,2016_Jan_09_1856,Flow_endo_post,3.0.5,60.11470198,
,82,1,68,,,,,,,,,,,,0,90,-4.6,left,1,0.599217721,left,,,,,,,,,3,24,2016_Jan_09_1856,Flow_endo_post,3.0.5,60.11470198,
,,,,0,1,81,,,,,,,,,,0,-4.6,left,,,,4.6,1,0.899813026,left,,,,,3,24,2016_Jan_09_1856,Flow_endo_post,3.0.5,60.11470198,
,,,,1,1,80,,,,,,,,,,0,-4.6,left,,,,4.6,1,0.533972201,left,,,,,3,24,2016_Jan_09_1856,Flow_endo_post,3.0.5,60.11470198,
,,,,2,1,79,,,,,,,,,,0,4.6,right,,,,-4.6,1,0.600103824,right,,,,,3,24,2016_Jan_09_1856,Flow_endo_post,3.0.5,60.11470198,
,,,,3,1,78,,,,,,,,,,0,4.6,right,,,,-4.6,1,0.500602182,right,,,,,3,24,2016_Jan_09_1856,Flow_endo_post,3.0.5,60.11470198,
,,,,4,1,77,,,,,,,,,,0,-4.6,left,,,,4.6,1,0.450802419,left,,,,,3,24,2016_Jan_09_1856,Flow_endo_post,3.0.5,60.11470198,
,,,,5,1,76,,,,,,,,,,90,-4.6,left,,,,4.6,1,0.40073893,left,,,,,3,24,2016_Jan_09_1856,Flow_endo_post,3.0.5,60.11470198,
,,,,6,1,75,,,,,,,,,,0,-4.6,left,,,,-4.6,1,0.434181748,left,,,,,3,24,2016_Jan_09_1856,Flow_endo_post,3.0.5,60.11470198,
,,,,7,1,74,,,,,,,,,,0,4.6,right,,,,4.6,1,0.450818275,right,,,,,3,24,2016_Jan_09_1856,Flow_endo_post,3.0.5,60.11470198,
,,,,8,1,73,,,,,,,,,,90,4.6,right,,,,-4.6,1,0.999548431,right,,,,,3,24,2016_Jan_09_1856,Flow_endo_post,3.0.5,60.11470198,
,,,,9,1,72,,,,,,,,,,90,4.6,right,,,,4.6,1,0.450817191,right,,,,,3,24,2016_Jan_09_1856,Flow_endo_post,3.0.5,60.11470198,
,,,,10,1,71,,,,,,,,,,0,4.6,right,,,,4.6,1,0.43407065,right,,,,,3,24,2016_Jan_09_1856,Flow_endo_post,3.0.5,60.11470198,
,,,,11,1,70,,,,,,,,,,90,4.6,right,,,,4.6,1,0.432917539,right,,,,,3,24,2016_Jan_09_1856,Flow_endo_post,3.0.5,60.11470198,
,,,,12,1,69,,,,,,,,,,90,-4.6,left,,,,-4.6,1,0.516767507,left,,,,,3,24,2016_Jan_09_1856,Flow_endo_post,3.0.5,60.11470198,
,,,,13,1,68,,,,,,,,,,0,-4.6,left,,,,-4.6,1,0.467610384,left,,,,,3,24,2016_Jan_09_1856,Flow_endo_post,3.0.5,60.11470198,
,,,,14,1,67,,,,,,,,,,0,4.6,right,,,,4.6,1,0.484096453,right,,,,,3,24,2016_Jan_09_1856,Flow_endo_post,3.0.5,60.11470198,
,,,,15,1,66,,,,,,,,,,0,4.6,right,,,,4.6,1,0.417601272,right,,,,,3,24,2016_Jan_09_1856,Flow_endo_post,3.0.5,60.11470198,
,,,,16,1,65,,,,,,,,,,0,4.6,right,,,,4.6,1,0.716845285,right,,,,,3,24,2016_Jan_09_1856,Flow_endo_post,3.0.5,60.11470198,
,,,,17,1,65,,,,,,,,,,0,4.6,right,,,,4.6,1,0.482781173,right,,,,,3,24,2016_Jan_09_1856,Flow_endo_post,3.0.5,60.11470198,
,,,,18,1,65,,,,,,,,,,90,4.6,right,,,,4.6,1,0.600495902,right,,,,,3,24,2016_Jan_09_1856,Flow_endo_post,3.0.5,60.11470198,
,,,,19,1,65,,,,,,,,,,0,4.6,right,,,,-4.6,0,0.584059935,left,,,,,3,24,2016_Jan_09_1856,Flow_endo_post,3.0.5,60.11470198,
,,,,20,1,66,,,,,,,,,,0,4.6,right,,,,4.6,1,0.417229774,right,,,,,3,24,2016_Jan_09_1856,Flow_endo_post,3.0.5,60.11470198,
,,,,21,1,66,,,,,,,,,,90,4.6,right,,,,4.6,1,1.315204464,right,,,,,3,24,2016_Jan_09_1856,Flow_endo_post,3.0.5,60.11470198,
,,,,22,1,66,,,,,,,,,,90,-4.6,left,,,,4.6,0,0.783390036,right,,,,,3,24,2016_Jan_09_1856,Flow_endo_post,3.0.5,60.11470198,
,,,,23,1,67,,,,,,,,,,0,-4.6,left,,,,4.6,1,0.916524126,left,,,,,3,24,2016_Jan_09_1856,Flow_endo_post,3.0.5,60.11470198,
,,,,24,1,67,,,,,,,,,,0,-4.6,left,,,,-4.6,1,0.417266053,left,,,,,3,24,2016_Jan_09_1856,Flow_endo_post,3.0.5,60.11470198,
,,,,25,1,67,,,,,,,,,,90,-4.6,left,,,,4.6,0,0.733478502,right,,,,,3,24,2016_Jan_09_1856,Flow_endo_post,3.0.5,60.11470198,
,,,,26,1,68,,,,,,,,,,90,4.6,right,,,,4.6,1,0.50041054,right,,,,,3,24,2016_Jan_09_1856,Flow_endo_post,3.0.5,60.11470198,
,,,,27,1,68,,,,,,,,,,0,4.6,right,,,,-4.6,0,1.215749145,left,,,,,3,24,2016_Jan_09_1856,Flow_endo_post,3.0.5,60.11470198,
,,,,28,1,69,,,,,,,,,,90,-4.6,left,,,,4.6,0,1.049308584,right,,,,,3,24,2016_Jan_09_1856,Flow_endo_post,3.0.5,60.11470198,
,,,,29,1,70,,,,,,,,,,0,-4.6,left,,,,4.6,1,0.533967083,left,,,,,3,24,2016_Jan_09_1856,Flow_endo_post,3.0.5,60.11470198,
,,,,30,1,70,,,,,,,,,,0,-4.6,left,,,,-4.6,1,0.432934434,left,,,,,3,24,2016_Jan_09_1856,Flow_endo_post,3.0.5,60.11470198,
,,,,31,1,70,,,,,,,,,,90,4.6,right,,,,4.6,1,0.500593715,right,,,,,3,24,2016_Jan_09_1856,Flow_endo_post,3.0.5,60.11470198,
,,,,32,1,69,,,,,,,,,,90,4.6,right,,,,-4.6,0,0.566963086,left,,,,,3,24,2016_Jan_09_1856,Flow_endo_post,3.0.5,60.11470198,
,,,,33,1,70,,,,,,,,,,90,-4.6,left,,,,-4.6,1,0.566940059,left,,,,,3,24,2016_Jan_09_1856,Flow_endo_post,3.0.5,60.11470198,
,,,,34,1,70,,,,,,,,,,90,4.6,right,,,,-4.6,0,0.683520923,left,,,,,3,24,2016_Jan_09_1856,Flow_endo_post,3.0.5,60.11470198,
,,,,35,1,71,,,,,,,,,,0,-4.6,left,,,,4.6,1,0.63373488,left,,,,,3,24,2016_Jan_09_1856,Flow_endo_post,3.0.5,60.11470198,
,,,,36,1,71,,,,,,,,,,90,4.6,right,,,,-4.6,1,0.683675067,right,,,,,3,24,2016_Jan_09_1856,Flow_endo_post,3.0.5,60.11470198,
,,,,37,1,71,,,,,,,,,,0,-4.6,left,,,,-4.6,1,0.766450033,left,,,,,3,24,2016_Jan_09_1856,Flow_endo_post,3.0.5,60.11470198,
,,,,38,1,70,,,,,,,,,,90,4.6,right,,,,4.6,1,0.567217652,right,,,,,3,24,2016_Jan_09_1856,Flow_endo_post,3.0.5,60.11470198,
,,,,39,1,70,,,,,,,,,,90,-4.6,left,,,,4.6,1,0.816325665,left,,,,,3,24,2016_Jan_09_1856,Flow_endo_post,3.0.5,60.11470198,
,,,,40,1,70,,,,,,,,,,90,4.6,right,,,,-4.6,0,1.847540569,left,,,,,3,24,2016_Jan_09_1856,Flow_endo_post,3.0.5,60.11470198,
,,,,41,1,71,,,,,,,,,,90,-4.6,left,,,,4.6,1,0.866446927,left,,,,,3,24,2016_Jan_09_1856,Flow_endo_post,3.0.5,60.11470198,
,,,,42,1,71,,,,,,,,,,0,-4.6,left,,,,-4.6,1,1.248833272,left,,,,,3,24,2016_Jan_09_1856,Flow_endo_post,3.0.5,60.11470198,
,,,,43,1,71,,,,,,,,,,0,4.6,right,,,,-4.6,1,0.966263193,right,,,,,3,24,2016_Jan_09_1856,Flow_endo_post,3.0.5,60.11470198,
,,,,44,1,70,,,,,,,,,,0,4.6,right,,,,4.6,1,0.484068092,right,,,,,3,24,2016_Jan_09_1856,Flow_endo_post,3.0.5,60.11470198,
,,,,45,1,70,,,,,,,,,,90,4.6,right,,,,-4.6,0,0.583561392,left,,,,,3,24,2016_Jan_09_1856,Flow_endo_post,3.0.5,60.11470198,
,,,,46,1,71,,,,,,,,,,90,-4.6,left,,,,-4.6,1,0.484092125,left,,,,,3,24,2016_Jan_09_1856,Flow_endo_post,3.0.5,60.11470198,
,,,,47,1,71,,,,,,,,,,0,4.6,right,,,,4.6,1,0.484082981,right,,,,,3,24,2016_Jan_09_1856,Flow_endo_post,3.0.5,60.11470198,
,,,,48,1,71,,,,,,,,,,0,4.6,right,,,,4.6,1,0.434209105,right,,,,,3,24,2016_Jan_09_1856,Flow_endo_post,3.0.5,60.11470198,
,,,,49,1,70,,,,,,,,,,0,-4.6,left,,,,4.6,1,1.348754633,left,,,,,3,24,2016_Jan_09_1856,Flow_endo_post,3.0.5,60.11470198,
,,,,50,1,70,,,,,,,,,,90,-4.6,left,,,,4.6,1,1.115663194,left,,,,,3,24,2016_Jan_09_1856,Flow_endo_post,3.0.5,60.11470198,
,,,,51,1,70,,,,,,,,,,0,-4.6,left,,,,4.6,1,0.916234001,left,,,,,3,24,2016_Jan_09_1856,Flow_endo_post,3.0.5,60.11470198,
,,,,52,1,69,,,,,,,,,,90,4.6,right,,,,-4.6,0,1.149188557,left,,,,,3,24,2016_Jan_09_1856,Flow_endo_post,3.0.5,60.11470198,
,,,,53,1,70,,,,,,,,,,0,-4.6,left,,,,4.6,1,0.550584462,left,,,,,3,24,2016_Jan_09_1856,Flow_endo_post,3.0.5,60.11470198,
,,,,54,1,70,,,,,,,,,,90,4.6,right,,,,-4.6,0,0.467463106,left,,,,,3,24,2016_Jan_09_1856,Flow_endo_post,3.0.5,60.11470198,
,,,,55,1,71,,,,,,,,,,90,-4.6,left,,,,4.6,1,0.616815331,left,,,,,3,24,2016_Jan_09_1856,Flow_endo_post,3.0.5,60.11470198,
,,,,56,1,71,,,,,,,,,,0,4.6,right,,,,4.6,1,0.417456459,right,,,,,3,24,2016_Jan_09_1856,Flow_endo_post,3.0.5,60.11470198,
,,,,57,1,71,,,,,,,,,,0,-4.6,left,,,,4.6,1,0.53365702,left,,,,,3,24,2016_Jan_09_1856,Flow_endo_post,3.0.5,60.11470198,
,,,,58,1,70,,,,,,,,,,90,-4.6,left,,,,4.6,1,0.616804458,left,,,,,3,24,2016_Jan_09_1856,Flow_endo_post,3.0.5,60.11470198,
,,,,59,1,70,,,,,,,,,,90,4.6,right,,,,4.6,1,0.550332786,right,,,,,3,24,2016_Jan_09_1856,Flow_endo_post,3.0.5,60.11470198,
,,,,60,1,70,,,,,,,,,,90,-4.6,left,,,,-4.6,1,0.400942142,left,,,,,3,24,2016_Jan_09_1856,Flow_endo_post,3.0.5,60.11470198,
,,,,61,1,69,,,,,,,,,,90,4.6,right,,,,-4.6,0,0.783387568,left,,,,,3,24,2016_Jan_09_1856,Flow_endo_post,3.0.5,60.11470198,
,,,,62,1,70,,,,,,,,,,0,-4.6,left,,,,4.6,1,1.094326344,left,,,,,3,24,2016_Jan_09_1856,Flow_endo_post,3.0.5,60.11470198,
,,,,63,1,70,,,,,,,,,,0,-4.6,left,,,,-4.6,1,0.899754245,left,,,,,3,24,2016_Jan_09_1856,Flow_endo_post,3.0.5,60.11470198,
,,,,64,1,70,,,,,,,,,,90,4.6,right,,,,4.6,1,1.182445872,right,,,,,3,24,2016_Jan_09_1856,Flow_endo_post,3.0.5,60.11470198,
,,,,65,1,69,,,,,,,,,,90,-4.6,left,,,,4.6,1,0.550497621,left,,,,,3,24,2016_Jan_09_1856,Flow_endo_post,3.0.5,60.11470198,
,,,,66,1,69,,,,,,,,,,0,-4.6,left,,,,-4.6,1,0.716581232,left,,,,,3,24,2016_Jan_09_1856,Flow_endo_post,3.0.5,60.11470198,
,,,,67,1,69,,,,,,,,,,0,4.6,right,,,,-4.6,0,0.550236886,left,,,,,3,24,2016_Jan_09_1856,Flow_endo_post,3.0.5,60.11470198,
,,,,68,1,70,,,,,,,,,,0,4.6,right,,,,-4.6,0,0.534092851,left,,,,,3,24,2016_Jan_09_1856,Flow_endo_post,3.0.5,60.11470198,
,,,,69,1,71,,,,,,,,,,90,4.6,right,,,,-4.6,1,1.165926298,right,,,,,3,24,2016_Jan_09_1856,Flow_endo_post,3.0.5,60.11470198,
,,,,70,1,71,,,,,,,,,,90,4.6,right,,,,-4.6,1,1.264291608,right,,,,,3,24,2016_Jan_09_1856,Flow_endo_post,3.0.5,60.11470198,
,,,,71,1,71,,,,,,,,,,90,4.6,right,,,,4.6,1,0.500690044,right,,,,,3,24,2016_Jan_09_1856,Flow_endo_post,3.0.5,60.11470198,
,,,,,,,,,,,,,,,,,,,,,,,,,,space,7.515614871,,,3,24,2016_Jan_09_1856,Flow_endo_post,3.0.5,60.11470198,
My state (body feelings, emotions and thoughts) during the task on the computer was similar to the state I had during my music performance.,,,,,,,0,0,0,0,,,,,,,,,,,,,,,,,,4,7.03,3,24,2016_Jan_09_1856,Flow_endo_post,3.0.5,60.11470198
The experience was extremely rewarding.,,,,,,,,,,,0,0,0,19,,,,,,,,,,,,,,4,5.588,3,24,2016_Jan_09_1856,Flow_endo_post,3.0.5,60.11470198,
I performed automatically without having to think about it.,,,,,,,,,,,0,1,1,25,,,,,,,,,,,,,,4,2.966,3,24,2016_Jan_09_1856,Flow_endo_post,3.0.5,60.11470198,
I had a good idea while I was performing about how well I was doing.,,,,,,,,,,,0,2,2,8,,,,,,,,,,,,,,4,8.203,3,24,2016_Jan_09_1856,Flow_endo_post,3.0.5,60.11470198,
My goals were clearly defined. ,,,,,,,,,,,0,3,3,2,,,,,,,,,,,,,,5,2.422,3,24,2016_Jan_09_1856,Flow_endo_post,3.0.5,60.11470198,
I was challenged, but I believe my skills will allow me to meet that challenge.,,,,,,,,,,,0,4,4,9,,,,,,,,,,,,,,4,3.013,3,24,2016_Jan_09_1856,Flow_endo_post,3.0.5,60.11470198
I felt that I had everything under control.,,,,,,,,,,,0,5,5,13,,,,,,,,,,,,,,4,2.467,3,24,2016_Jan_09_1856,Flow_endo_post,3.0.5,60.11470198,
The challenge and my skills were at an equally high level.,,,,,,,,,,,0,6,6,10,,,,,,,,,,,,,,4,1.867,3,24,2016_Jan_09_1856,Flow_endo_post,3.0.5,60.11470198,
I lost my normal awareness of time.,,,,,,,,,,,0,7,7,20,,,,,,,,,,,,,,4,1.855,3,24,2016_Jan_09_1856,Flow_endo_post,3.0.5,60.11470198,
The way time passed seemed to be different from normal.,,,,,,,,,,,0,8,8,24,,,,,,,,,,,,,,3,2.552,3,24,2016_Jan_09_1856,Flow_endo_post,3.0.5,60.11470198,
I really enjoyed the experience.,,,,,,,,,,,0,9,9,17,,,,,,,,,,,,,,4,1.72,3,24,2016_Jan_09_1856,Flow_endo_post,3.0.5,60.11470198,
My attention was focused entirely on what I was doing.,,,,,,,,,,,0,10,10,3,,,,,,,,,,,,,,2,6.891,3,24,2016_Jan_09_1856,Flow_endo_post,3.0.5,60.11470198,
I had a strong sense of what I wanted to accomplish.,,,,,,,,,,,0,11,11,0,,,,,,,,,,,,,,4,2.983,3,24,2016_Jan_09_1856,Flow_endo_post,3.0.5,60.11470198,
I felt as though I had everything under control.,,,,,,,,,,,0,12,12,12,,,,,,,,,,,,,,3,3.882,3,24,2016_Jan_09_1856,Flow_endo_post,3.0.5,60.11470198,
I had no difficulty concentrating.,,,,,,,,,,,0,13,13,6,,,,,,,,,,,,,,2,1.988,3,24,2016_Jan_09_1856,Flow_endo_post,3.0.5,60.11470198,
Time seemed to alter (either slows down or speeds up).,,,,,,,,,,,0,14,14,23,,,,,,,,,,,,,,3,3.102,3,24,2016_Jan_09_1856,Flow_endo_post,3.0.5,60.11470198,
Things just seemed to happen automatically.,,,,,,,,,,,0,15,15,21,,,,,,,,,,,,,,3,2.636,3,24,2016_Jan_09_1856,Flow_endo_post,3.0.5,60.11470198,
I was not concerned with how I was presenting myself.,,,,,,,,,,,0,16,16,15,,,,,,,,,,,,,,4,3.964,3,24,2016_Jan_09_1856,Flow_endo_post,3.0.5,60.11470198,
I did things spontaneously without having to think.,,,,,,,,,,,0,17,17,22,,,,,,,,,,,,,,4,4.329,3,24,2016_Jan_09_1856,Flow_endo_post,3.0.5,60.11470198,
The experience left me feeling great.,,,,,,,,,,,0,18,18,18,,,,,,,,,,,,,,4,1.889,3,24,2016_Jan_09_1856,Flow_endo_post,3.0.5,60.11470198,
It was really clear to me how my performance was going.,,,,,,,,,,,0,19,19,7,,,,,,,,,,,,,,3,3.531,3,24,2016_Jan_09_1856,Flow_endo_post,3.0.5,60.11470198,
I knew what I want to achieve.,,,,,,,,,,,0,20,20,1,,,,,,,,,,,,,,4,1.523,3,24,2016_Jan_09_1856,Flow_endo_post,3.0.5,60.11470198,
I was not concerned with how others might be evaluating me.,,,,,,,,,,,0,21,21,14,,,,,,,,,,,,,,2,4.695,3,24,2016_Jan_09_1856,Flow_endo_post,3.0.5,60.11470198,
I was not worried about what others might be thinking of me.,,,,,,,,,,,0,22,22,16,,,,,,,,,,,,,,2,3.033,3,24,2016_Jan_09_1856,Flow_endo_post,3.0.5,60.11470198,
It was no effort to keep my mind on what was happening.,,,,,,,,,,,0,23,23,4,,,,,,,,,,,,,,2,4.745,3,24,2016_Jan_09_1856,Flow_endo_post,3.0.5,60.11470198,
I had total concentration.,,,,,,,,,,,0,24,24,5,,,,,,,,,,,,,,2,2.455,3,24,2016_Jan_09_1856,Flow_endo_post,3.0.5,60.11470198,
I felt just the right amount of challenge. ,,,,,,,,,,,0,25,25,11,,,,,,,,,,,,,,4,2.036,3,24,2016_Jan_09_1856,Flow_endo_post,3.0.5,60.11470198,
