Questions,Stair.thisTrialN,Stair.stepSize,Stair.intensity,Stair2.thisTrialN,Stair2.stepSize,Stair2.intensity,controlQ.thisRepN,controlQ.thisTrialN,controlQ.thisN,controlQ.thisIndex,Qs.thisRepN,Qs.thisTrialN,Qs.thisN,Qs.thisIndex,cueOri,targetXOri,targetXPos,CorrectAns,Stair.response,keyPress.rt,keyPress.rl,cueExoPos,Stair2.response,keyPress_2.rt,keyPress_2.rl,key_start.keys,key_start.rt,Quest_Ans.response,Quest_Ans.rt,Session,Participant,date,expName,psychopyVersion,frameRate,
,0,1,81,,,,,,,,,,,,0,0,-4.6,left,1,0.5519426,left,,,,,,,,,3,211,2019_Apr_10_1608,Flow_endo_post,3.0.5,60.35891827,
,1,1,80,,,,,,,,,,,,0,90,4.6,right,1,0.485054,right,,,,,,,,,3,211,2019_Apr_10_1608,Flow_endo_post,3.0.5,60.35891827,
,2,1,79,,,,,,,,,,,,0,0,4.6,right,1,0.434325,right,,,,,,,,,3,211,2019_Apr_10_1608,Flow_endo_post,3.0.5,60.35891827,
,3,1,78,,,,,,,,,,,,180,0,4.6,right,1,0.734803,right,,,,,,,,,3,211,2019_Apr_10_1608,Flow_endo_post,3.0.5,60.35891827,
,4,1,77,,,,,,,,,,,,180,0,-4.6,left,1,0.4495295,left,,,,,,,,,3,211,2019_Apr_10_1608,Flow_endo_post,3.0.5,60.35891827,
,5,1,76,,,,,,,,,,,,180,0,4.6,right,1,0.4176251,right,,,,,,,,,3,211,2019_Apr_10_1608,Flow_endo_post,3.0.5,60.35891827,
,6,1,75,,,,,,,,,,,,0,0,-4.6,left,1,0.4352196,left,,,,,,,,,3,211,2019_Apr_10_1608,Flow_endo_post,3.0.5,60.35891827,
,7,1,74,,,,,,,,,,,,180,90,4.6,right,1,0.4352138,right,,,,,,,,,3,211,2019_Apr_10_1608,Flow_endo_post,3.0.5,60.35891827,
,8,1,73,,,,,,,,,,,,180,90,-4.6,left,1,0.434027,left,,,,,,,,,3,211,2019_Apr_10_1608,Flow_endo_post,3.0.5,60.35891827,
,9,1,72,,,,,,,,,,,,180,0,4.6,right,1,0.4511241,right,,,,,,,,,3,211,2019_Apr_10_1608,Flow_endo_post,3.0.5,60.35891827,
,10,1,71,,,,,,,,,,,,180,90,4.6,right,1,0.4515105,right,,,,,,,,,3,211,2019_Apr_10_1608,Flow_endo_post,3.0.5,60.35891827,
,11,1,70,,,,,,,,,,,,180,90,-4.6,left,0,0.7011886,right,,,,,,,,,3,211,2019_Apr_10_1608,Flow_endo_post,3.0.5,60.35891827,
,12,1,71,,,,,,,,,,,,180,90,-4.6,left,1,0.418199,left,,,,,,,,,3,211,2019_Apr_10_1608,Flow_endo_post,3.0.5,60.35891827,
,13,1,71,,,,,,,,,,,,180,90,4.6,right,1,0.4513715,right,,,,,,,,,3,211,2019_Apr_10_1608,Flow_endo_post,3.0.5,60.35891827,
,14,1,71,,,,,,,,,,,,180,90,4.6,right,1,0.4176509,right,,,,,,,,,3,211,2019_Apr_10_1608,Flow_endo_post,3.0.5,60.35891827,
,15,1,70,,,,,,,,,,,,0,0,4.6,right,1,0.3510936,right,,,,,,,,,3,211,2019_Apr_10_1608,Flow_endo_post,3.0.5,60.35891827,
,16,1,70,,,,,,,,,,,,180,90,4.6,right,1,0.3682808,right,,,,,,,,,3,211,2019_Apr_10_1608,Flow_endo_post,3.0.5,60.35891827,
,17,1,70,,,,,,,,,,,,180,90,-4.6,left,1,0.3177851,left,,,,,,,,,3,211,2019_Apr_10_1608,Flow_endo_post,3.0.5,60.35891827,
,18,1,69,,,,,,,,,,,,180,90,4.6,right,1,0.4006372,right,,,,,,,,,3,211,2019_Apr_10_1608,Flow_endo_post,3.0.5,60.35891827,
,19,1,69,,,,,,,,,,,,180,0,4.6,right,1,0.3680345,right,,,,,,,,,3,211,2019_Apr_10_1608,Flow_endo_post,3.0.5,60.35891827,
,20,1,69,,,,,,,,,,,,180,0,4.6,right,1,0.4028822,right,,,,,,,,,3,211,2019_Apr_10_1608,Flow_endo_post,3.0.5,60.35891827,
,21,1,68,,,,,,,,,,,,0,90,-4.6,left,1,0.601466,left,,,,,,,,,3,211,2019_Apr_10_1608,Flow_endo_post,3.0.5,60.35891827,
,22,1,68,,,,,,,,,,,,0,90,-4.6,left,1,0.4688325,left,,,,,,,,,3,211,2019_Apr_10_1608,Flow_endo_post,3.0.5,60.35891827,
,23,1,68,,,,,,,,,,,,180,90,4.6,right,1,0.4348788,right,,,,,,,,,3,211,2019_Apr_10_1608,Flow_endo_post,3.0.5,60.35891827,
,24,1,67,,,,,,,,,,,,0,90,4.6,right,1,0.4194878,right,,,,,,,,,3,211,2019_Apr_10_1608,Flow_endo_post,3.0.5,60.35891827,
,25,1,67,,,,,,,,,,,,180,0,4.6,right,1,0.4351226,right,,,,,,,,,3,211,2019_Apr_10_1608,Flow_endo_post,3.0.5,60.35891827,
,26,1,67,,,,,,,,,,,,180,0,4.6,right,1,0.4350722,right,,,,,,,,,3,211,2019_Apr_10_1608,Flow_endo_post,3.0.5,60.35891827,
,27,1,66,,,,,,,,,,,,180,90,-4.6,left,1,0.4846464,left,,,,,,,,,3,211,2019_Apr_10_1608,Flow_endo_post,3.0.5,60.35891827,
,28,1,66,,,,,,,,,,,,0,90,4.6,right,1,0.7348288,right,,,,,,,,,3,211,2019_Apr_10_1608,Flow_endo_post,3.0.5,60.35891827,
,29,1,66,,,,,,,,,,,,180,0,4.6,right,0,1.4862744,left,,,,,,,,,3,211,2019_Apr_10_1608,Flow_endo_post,3.0.5,60.35891827,
,30,1,67,,,,,,,,,,,,0,90,-4.6,left,0,0.4512215,right,,,,,,,,,3,211,2019_Apr_10_1608,Flow_endo_post,3.0.5,60.35891827,
,31,1,68,,,,,,,,,,,,0,90,4.6,right,1,0.4346772,right,,,,,,,,,3,211,2019_Apr_10_1608,Flow_endo_post,3.0.5,60.35891827,
,32,1,68,,,,,,,,,,,,0,90,4.6,right,1,0.4348859,right,,,,,,,,,3,211,2019_Apr_10_1608,Flow_endo_post,3.0.5,60.35891827,
,33,1,68,,,,,,,,,,,,0,0,-4.6,left,1,0.8511783,left,,,,,,,,,3,211,2019_Apr_10_1608,Flow_endo_post,3.0.5,60.35891827,
,34,1,67,,,,,,,,,,,,0,90,-4.6,left,1,0.5687923,left,,,,,,,,,3,211,2019_Apr_10_1608,Flow_endo_post,3.0.5,60.35891827,
,35,1,67,,,,,,,,,,,,0,90,-4.6,left,1,0.8014543,left,,,,,,,,,3,211,2019_Apr_10_1608,Flow_endo_post,3.0.5,60.35891827,
,36,1,67,,,,,,,,,,,,0,0,-4.6,left,0,0.668409,right,,,,,,,,,3,211,2019_Apr_10_1608,Flow_endo_post,3.0.5,60.35891827,
,37,1,68,,,,,,,,,,,,180,90,4.6,right,1,0.4845808,right,,,,,,,,,3,211,2019_Apr_10_1608,Flow_endo_post,3.0.5,60.35891827,
,38,1,68,,,,,,,,,,,,180,0,4.6,right,0,1.1855841,left,,,,,,,,,3,211,2019_Apr_10_1608,Flow_endo_post,3.0.5,60.35891827,
,39,1,69,,,,,,,,,,,,0,90,4.6,right,1,0.4854145,right,,,,,,,,,3,211,2019_Apr_10_1608,Flow_endo_post,3.0.5,60.35891827,
,40,1,69,,,,,,,,,,,,180,0,-4.6,left,1,0.4352174,left,,,,,,,,,3,211,2019_Apr_10_1608,Flow_endo_post,3.0.5,60.35891827,
,41,1,69,,,,,,,,,,,,180,90,-4.6,left,1,0.4350515,left,,,,,,,,,3,211,2019_Apr_10_1608,Flow_endo_post,3.0.5,60.35891827,
,42,1,68,,,,,,,,,,,,180,0,4.6,right,0,1.0859035,left,,,,,,,,,3,211,2019_Apr_10_1608,Flow_endo_post,3.0.5,60.35891827,
,43,1,69,,,,,,,,,,,,180,90,4.6,right,1,0.4513398,right,,,,,,,,,3,211,2019_Apr_10_1608,Flow_endo_post,3.0.5,60.35891827,
,44,1,69,,,,,,,,,,,,180,90,4.6,right,1,0.4349629,right,,,,,,,,,3,211,2019_Apr_10_1608,Flow_endo_post,3.0.5,60.35891827,
,45,1,69,,,,,,,,,,,,0,0,-4.6,left,1,0.785796,left,,,,,,,,,3,211,2019_Apr_10_1608,Flow_endo_post,3.0.5,60.35891827,
,46,1,68,,,,,,,,,,,,0,90,4.6,right,1,0.3847369,right,,,,,,,,,3,211,2019_Apr_10_1608,Flow_endo_post,3.0.5,60.35891827,
,47,1,68,,,,,,,,,,,,0,0,4.6,right,0,1.0859238,left,,,,,,,,,3,211,2019_Apr_10_1608,Flow_endo_post,3.0.5,60.35891827,
,48,1,69,,,,,,,,,,,,180,90,4.6,right,1,0.5347538,right,,,,,,,,,3,211,2019_Apr_10_1608,Flow_endo_post,3.0.5,60.35891827,
,49,1,69,,,,,,,,,,,,180,90,-4.6,left,1,0.4686316,left,,,,,,,,,3,211,2019_Apr_10_1608,Flow_endo_post,3.0.5,60.35891827,
,50,1,69,,,,,,,,,,,,180,0,4.6,right,1,0.9028904,right,,,,,,,,,3,211,2019_Apr_10_1608,Flow_endo_post,3.0.5,60.35891827,
,51,1,68,,,,,,,,,,,,180,0,4.6,right,0,0.7179969,left,,,,,,,,,3,211,2019_Apr_10_1608,Flow_endo_post,3.0.5,60.35891827,
,52,1,69,,,,,,,,,,,,180,90,-4.6,left,1,0.534588,left,,,,,,,,,3,211,2019_Apr_10_1608,Flow_endo_post,3.0.5,60.35891827,
,53,1,69,,,,,,,,,,,,0,0,-4.6,left,1,0.8348023,left,,,,,,,,,3,211,2019_Apr_10_1608,Flow_endo_post,3.0.5,60.35891827,
,54,1,69,,,,,,,,,,,,180,0,-4.6,left,1,0.3848341,left,,,,,,,,,3,211,2019_Apr_10_1608,Flow_endo_post,3.0.5,60.35891827,
,55,1,68,,,,,,,,,,,,0,0,4.6,right,1,0.5346414,right,,,,,,,,,3,211,2019_Apr_10_1608,Flow_endo_post,3.0.5,60.35891827,
,56,1,68,,,,,,,,,,,,180,90,4.6,right,0,0.835308,left,,,,,,,,,3,211,2019_Apr_10_1608,Flow_endo_post,3.0.5,60.35891827,
,57,1,69,,,,,,,,,,,,0,0,-4.6,left,1,0.4516616,left,,,,,,,,,3,211,2019_Apr_10_1608,Flow_endo_post,3.0.5,60.35891827,
,58,1,69,,,,,,,,,,,,180,0,-4.6,left,1,0.4850169,left,,,,,,,,,3,211,2019_Apr_10_1608,Flow_endo_post,3.0.5,60.35891827,
,59,1,69,,,,,,,,,,,,180,0,-4.6,left,1,0.4673186,left,,,,,,,,,3,211,2019_Apr_10_1608,Flow_endo_post,3.0.5,60.35891827,
,,,,0,1,81,,,,,,,,,,0,-4.6,left,,,,4.6,1,0.5995366,left,,,,,3,211,2019_Apr_10_1608,Flow_endo_post,3.0.5,60.35891827,
,,,,1,1,80,,,,,,,,,,0,4.6,right,,,,4.6,1,0.5839265,right,,,,,3,211,2019_Apr_10_1608,Flow_endo_post,3.0.5,60.35891827,
,,,,2,1,79,,,,,,,,,,0,4.6,right,,,,-4.6,1,0.8023069,right,,,,,3,211,2019_Apr_10_1608,Flow_endo_post,3.0.5,60.35891827,
,,,,3,1,78,,,,,,,,,,0,-4.6,left,,,,-4.6,1,0.6520552,left,,,,,3,211,2019_Apr_10_1608,Flow_endo_post,3.0.5,60.35891827,
,,,,4,1,77,,,,,,,,,,90,-4.6,left,,,,4.6,1,0.5850612,left,,,,,3,211,2019_Apr_10_1608,Flow_endo_post,3.0.5,60.35891827,
,,,,5,1,76,,,,,,,,,,90,4.6,right,,,,4.6,1,0.6516975,right,,,,,3,211,2019_Apr_10_1608,Flow_endo_post,3.0.5,60.35891827,
,,,,6,1,75,,,,,,,,,,0,-4.6,left,,,,-4.6,1,0.6856707,left,,,,,3,211,2019_Apr_10_1608,Flow_endo_post,3.0.5,60.35891827,
,,,,7,1,74,,,,,,,,,,0,4.6,right,,,,4.6,1,0.7183602,right,,,,,3,211,2019_Apr_10_1608,Flow_endo_post,3.0.5,60.35891827,
,,,,8,1,73,,,,,,,,,,0,-4.6,left,,,,4.6,1,0.8186199,left,,,,,3,211,2019_Apr_10_1608,Flow_endo_post,3.0.5,60.35891827,
,,,,9,1,72,,,,,,,,,,0,4.6,right,,,,4.6,1,0.5681834,right,,,,,3,211,2019_Apr_10_1608,Flow_endo_post,3.0.5,60.35891827,
,,,,10,1,71,,,,,,,,,,0,4.6,right,,,,4.6,1,0.6013403,right,,,,,3,211,2019_Apr_10_1608,Flow_endo_post,3.0.5,60.35891827,
,,,,11,1,70,,,,,,,,,,90,4.6,right,,,,-4.6,1,0.935102,right,,,,,3,211,2019_Apr_10_1608,Flow_endo_post,3.0.5,60.35891827,
,,,,12,1,69,,,,,,,,,,0,4.6,right,,,,4.6,1,0.5514941,right,,,,,3,211,2019_Apr_10_1608,Flow_endo_post,3.0.5,60.35891827,
,,,,13,1,68,,,,,,,,,,90,4.6,right,,,,4.6,1,0.6519699,right,,,,,3,211,2019_Apr_10_1608,Flow_endo_post,3.0.5,60.35891827,
,,,,14,1,67,,,,,,,,,,90,4.6,right,,,,-4.6,1,1.7188796,right,,,,,3,211,2019_Apr_10_1608,Flow_endo_post,3.0.5,60.35891827,
,,,,15,1,66,,,,,,,,,,0,-4.6,left,,,,4.6,0,0.4680428,right,,,,,3,211,2019_Apr_10_1608,Flow_endo_post,3.0.5,60.35891827,
,,,,16,1,67,,,,,,,,,,0,4.6,right,,,,-4.6,0,0.9347146,left,,,,,3,211,2019_Apr_10_1608,Flow_endo_post,3.0.5,60.35891827,
,,,,17,1,68,,,,,,,,,,0,4.6,right,,,,-4.6,1,0.8854574,right,,,,,3,211,2019_Apr_10_1608,Flow_endo_post,3.0.5,60.35891827,
,,,,18,1,68,,,,,,,,,,0,4.6,right,,,,-4.6,0,0.818188,left,,,,,3,211,2019_Apr_10_1608,Flow_endo_post,3.0.5,60.35891827,
,,,,19,1,69,,,,,,,,,,90,-4.6,left,,,,4.6,1,1.7366111,left,,,,,3,211,2019_Apr_10_1608,Flow_endo_post,3.0.5,60.35891827,
,,,,20,1,69,,,,,,,,,,0,-4.6,left,,,,4.6,1,0.7330533,left,,,,,3,211,2019_Apr_10_1608,Flow_endo_post,3.0.5,60.35891827,
,,,,21,1,69,,,,,,,,,,90,4.6,right,,,,-4.6,1,1.2514039,right,,,,,3,211,2019_Apr_10_1608,Flow_endo_post,3.0.5,60.35891827,
,,,,22,1,68,,,,,,,,,,0,-4.6,left,,,,-4.6,1,0.8372306,left,,,,,3,211,2019_Apr_10_1608,Flow_endo_post,3.0.5,60.35891827,
,,,,23,1,68,,,,,,,,,,0,-4.6,left,,,,-4.6,1,0.5351019,left,,,,,3,211,2019_Apr_10_1608,Flow_endo_post,3.0.5,60.35891827,
,,,,24,1,68,,,,,,,,,,90,-4.6,left,,,,-4.6,1,0.6686305,left,,,,,3,211,2019_Apr_10_1608,Flow_endo_post,3.0.5,60.35891827,
,,,,25,1,67,,,,,,,,,,0,4.6,right,,,,4.6,1,0.4850625,right,,,,,3,211,2019_Apr_10_1608,Flow_endo_post,3.0.5,60.35891827,
,,,,26,1,67,,,,,,,,,,90,-4.6,left,,,,-4.6,1,0.5525117,left,,,,,3,211,2019_Apr_10_1608,Flow_endo_post,3.0.5,60.35891827,
,,,,27,1,67,,,,,,,,,,0,4.6,right,,,,4.6,1,0.6689484,right,,,,,3,211,2019_Apr_10_1608,Flow_endo_post,3.0.5,60.35891827,
,,,,28,1,66,,,,,,,,,,0,-4.6,left,,,,-4.6,1,0.7357539,left,,,,,3,211,2019_Apr_10_1608,Flow_endo_post,3.0.5,60.35891827,
,,,,29,1,66,,,,,,,,,,90,-4.6,left,,,,-4.6,1,0.9202517,left,,,,,3,211,2019_Apr_10_1608,Flow_endo_post,3.0.5,60.35891827,
,,,,30,1,66,,,,,,,,,,0,-4.6,left,,,,4.6,0,1.6196551,right,,,,,3,211,2019_Apr_10_1608,Flow_endo_post,3.0.5,60.35891827,
,,,,31,1,67,,,,,,,,,,90,-4.6,left,,,,4.6,1,1.21913,left,,,,,3,211,2019_Apr_10_1608,Flow_endo_post,3.0.5,60.35891827,
,,,,32,1,67,,,,,,,,,,0,4.6,right,,,,-4.6,0,0.9020761,left,,,,,3,211,2019_Apr_10_1608,Flow_endo_post,3.0.5,60.35891827,
,,,,33,1,68,,,,,,,,,,90,4.6,right,,,,-4.6,1,0.9187962,right,,,,,3,211,2019_Apr_10_1608,Flow_endo_post,3.0.5,60.35891827,
,,,,34,1,68,,,,,,,,,,0,-4.6,left,,,,-4.6,1,0.5341188,left,,,,,3,211,2019_Apr_10_1608,Flow_endo_post,3.0.5,60.35891827,
,,,,35,1,68,,,,,,,,,,90,-4.6,left,,,,-4.6,1,0.5354901,left,,,,,3,211,2019_Apr_10_1608,Flow_endo_post,3.0.5,60.35891827,
,,,,36,1,67,,,,,,,,,,90,4.6,right,,,,4.6,1,0.5683506,right,,,,,3,211,2019_Apr_10_1608,Flow_endo_post,3.0.5,60.35891827,
,,,,37,1,67,,,,,,,,,,0,4.6,right,,,,4.6,1,1.1023388,right,,,,,3,211,2019_Apr_10_1608,Flow_endo_post,3.0.5,60.35891827,
,,,,38,1,67,,,,,,,,,,90,-4.6,left,,,,-4.6,1,0.6182891,left,,,,,3,211,2019_Apr_10_1608,Flow_endo_post,3.0.5,60.35891827,
,,,,39,1,66,,,,,,,,,,90,-4.6,left,,,,4.6,0,0.4349535,right,,,,,3,211,2019_Apr_10_1608,Flow_endo_post,3.0.5,60.35891827,
,,,,40,1,67,,,,,,,,,,0,-4.6,left,,,,-4.6,1,0.4348918,left,,,,,3,211,2019_Apr_10_1608,Flow_endo_post,3.0.5,60.35891827,
,,,,41,1,67,,,,,,,,,,90,4.6,right,,,,4.6,1,0.4348696,right,,,,,3,211,2019_Apr_10_1608,Flow_endo_post,3.0.5,60.35891827,
,,,,42,1,67,,,,,,,,,,0,-4.6,left,,,,-4.6,1,0.3683578,left,,,,,3,211,2019_Apr_10_1608,Flow_endo_post,3.0.5,60.35891827,
,,,,43,1,66,,,,,,,,,,90,-4.6,left,,,,4.6,0,0.5015111,right,,,,,3,211,2019_Apr_10_1608,Flow_endo_post,3.0.5,60.35891827,
,,,,44,1,67,,,,,,,,,,0,-4.6,left,,,,4.6,1,0.9190646,left,,,,,3,211,2019_Apr_10_1608,Flow_endo_post,3.0.5,60.35891827,
,,,,45,1,67,,,,,,,,,,90,4.6,right,,,,-4.6,0,1.4360532,left,,,,,3,211,2019_Apr_10_1608,Flow_endo_post,3.0.5,60.35891827,
,,,,46,1,68,,,,,,,,,,90,-4.6,left,,,,4.6,1,1.1691304,left,,,,,3,211,2019_Apr_10_1608,Flow_endo_post,3.0.5,60.35891827,
,,,,47,1,68,,,,,,,,,,90,-4.6,left,,,,-4.6,1,0.5184123,left,,,,,3,211,2019_Apr_10_1608,Flow_endo_post,3.0.5,60.35891827,
,,,,48,1,68,,,,,,,,,,90,4.6,right,,,,-4.6,1,1.4029549,right,,,,,3,211,2019_Apr_10_1608,Flow_endo_post,3.0.5,60.35891827,
,,,,49,1,67,,,,,,,,,,90,-4.6,left,,,,-4.6,1,0.4849453,left,,,,,3,211,2019_Apr_10_1608,Flow_endo_post,3.0.5,60.35891827,
,,,,50,1,67,,,,,,,,,,0,4.6,right,,,,4.6,1,0.8854325,right,,,,,3,211,2019_Apr_10_1608,Flow_endo_post,3.0.5,60.35891827,
,,,,51,1,67,,,,,,,,,,0,-4.6,left,,,,4.6,0,0.85249,right,,,,,3,211,2019_Apr_10_1608,Flow_endo_post,3.0.5,60.35891827,
,,,,52,1,68,,,,,,,,,,90,-4.6,left,,,,-4.6,1,0.3852115,left,,,,,3,211,2019_Apr_10_1608,Flow_endo_post,3.0.5,60.35891827,
,,,,53,1,68,,,,,,,,,,90,-4.6,left,,,,-4.6,1,0.3848956,left,,,,,3,211,2019_Apr_10_1608,Flow_endo_post,3.0.5,60.35891827,
,,,,54,1,68,,,,,,,,,,90,4.6,right,,,,4.6,1,0.4354099,right,,,,,3,211,2019_Apr_10_1608,Flow_endo_post,3.0.5,60.35891827,
,,,,55,1,67,,,,,,,,,,0,-4.6,left,,,,-4.6,1,0.3849543,left,,,,,3,211,2019_Apr_10_1608,Flow_endo_post,3.0.5,60.35891827,
,,,,56,1,67,,,,,,,,,,0,4.6,right,,,,4.6,1,0.4180816,right,,,,,3,211,2019_Apr_10_1608,Flow_endo_post,3.0.5,60.35891827,
,,,,57,1,67,,,,,,,,,,0,4.6,right,,,,-4.6,0,0.418113,left,,,,,3,211,2019_Apr_10_1608,Flow_endo_post,3.0.5,60.35891827,
,,,,58,1,68,,,,,,,,,,0,4.6,right,,,,-4.6,0,0.4676538,left,,,,,3,211,2019_Apr_10_1608,Flow_endo_post,3.0.5,60.35891827,
,,,,59,1,69,,,,,,,,,,90,4.6,right,,,,-4.6,1,1.1522734,right,,,,,3,211,2019_Apr_10_1608,Flow_endo_post,3.0.5,60.35891827,
,,,,60,1,69,,,,,,,,,,0,-4.6,left,,,,4.6,1,0.9188947,left,,,,,3,211,2019_Apr_10_1608,Flow_endo_post,3.0.5,60.35891827,
,,,,61,1,69,,,,,,,,,,0,4.6,right,,,,4.6,1,0.6516059,right,,,,,3,211,2019_Apr_10_1608,Flow_endo_post,3.0.5,60.35891827,
,,,,62,1,68,,,,,,,,,,90,-4.6,left,,,,4.6,1,0.9518799,left,,,,,3,211,2019_Apr_10_1608,Flow_endo_post,3.0.5,60.35891827,
,,,,63,1,68,,,,,,,,,,0,-4.6,left,,,,4.6,1,1.8366295,left,,,,,3,211,2019_Apr_10_1608,Flow_endo_post,3.0.5,60.35891827,
,,,,64,1,68,,,,,,,,,,90,-4.6,left,,,,-4.6,1,1.5527917,left,,,,,3,211,2019_Apr_10_1608,Flow_endo_post,3.0.5,60.35891827,
,,,,65,1,67,,,,,,,,,,0,4.6,right,,,,4.6,1,0.4680801,right,,,,,3,211,2019_Apr_10_1608,Flow_endo_post,3.0.5,60.35891827,
,,,,66,1,67,,,,,,,,,,0,4.6,right,,,,4.6,1,0.5015859,right,,,,,3,211,2019_Apr_10_1608,Flow_endo_post,3.0.5,60.35891827,
,,,,67,1,67,,,,,,,,,,0,4.6,right,,,,-4.6,0,0.585486,left,,,,,3,211,2019_Apr_10_1608,Flow_endo_post,3.0.5,60.35891827,
,,,,68,1,68,,,,,,,,,,90,4.6,right,,,,4.6,1,0.6178872,right,,,,,3,211,2019_Apr_10_1608,Flow_endo_post,3.0.5,60.35891827,
,,,,69,1,68,,,,,,,,,,0,4.6,right,,,,4.6,1,0.633729,right,,,,,3,211,2019_Apr_10_1608,Flow_endo_post,3.0.5,60.35891827,
,,,,70,1,68,,,,,,,,,,90,4.6,right,,,,-4.6,1,0.9188803,right,,,,,3,211,2019_Apr_10_1608,Flow_endo_post,3.0.5,60.35891827,
,,,,,,,,,,,,,,,,,,,,,,,,,,space,3.6701716,,,3,211,2019_Apr_10_1608,Flow_endo_post,3.0.5,60.35891827,
My state (body feelings, emotions and thoughts) during the task on the computer was similar to the state I had during my music performance.,,,,,,,0,0,0,0,,,,,,,,,,,,,,,,,,3,8.903,3,211,2019_Apr_10_1608,Flow_endo_post,3.0.5,60.35891827
I was not concerned with how I was presenting myself.,,,,,,,,,,,0,0,0,15,,,,,,,,,,,,,,4,2.711,3,211,2019_Apr_10_1608,Flow_endo_post,3.0.5,60.35891827,
I was challenged, but I believe my skills will allow me to meet that challenge.,,,,,,,,,,,0,1,1,9,,,,,,,,,,,,,,4,2.155,3,211,2019_Apr_10_1608,Flow_endo_post,3.0.5,60.35891827
Time seemed to alter (either slows down or speeds up).,,,,,,,,,,,0,2,2,23,,,,,,,,,,,,,,4,4.473,3,211,2019_Apr_10_1608,Flow_endo_post,3.0.5,60.35891827,
The experience was extremely rewarding.,,,,,,,,,,,0,3,3,19,,,,,,,,,,,,,,4,1.939,3,211,2019_Apr_10_1608,Flow_endo_post,3.0.5,60.35891827,
I was not concerned with how others might be evaluating me.,,,,,,,,,,,0,4,4,14,,,,,,,,,,,,,,4,3.562,3,211,2019_Apr_10_1608,Flow_endo_post,3.0.5,60.35891827,
Things just seemed to happen automatically.,,,,,,,,,,,0,5,5,21,,,,,,,,,,,,,,4,1.353,3,211,2019_Apr_10_1608,Flow_endo_post,3.0.5,60.35891827,
I did things spontaneously without having to think.,,,,,,,,,,,0,6,6,22,,,,,,,,,,,,,,2,3.868,3,211,2019_Apr_10_1608,Flow_endo_post,3.0.5,60.35891827,
It was no effort to keep my mind on what was happening.,,,,,,,,,,,0,7,7,4,,,,,,,,,,,,,,4,3.47,3,211,2019_Apr_10_1608,Flow_endo_post,3.0.5,60.35891827,
I really enjoyed the experience.,,,,,,,,,,,0,8,8,17,,,,,,,,,,,,,,4,2.785,3,211,2019_Apr_10_1608,Flow_endo_post,3.0.5,60.35891827,
My goals were clearly defined. ,,,,,,,,,,,0,9,9,2,,,,,,,,,,,,,,4,3.88,3,211,2019_Apr_10_1608,Flow_endo_post,3.0.5,60.35891827,
The experience left me feeling great.,,,,,,,,,,,0,10,10,18,,,,,,,,,,,,,,4,1.675,3,211,2019_Apr_10_1608,Flow_endo_post,3.0.5,60.35891827,
I felt as though I had everything under control.,,,,,,,,,,,0,11,11,12,,,,,,,,,,,,,,4,3.622,3,211,2019_Apr_10_1608,Flow_endo_post,3.0.5,60.35891827,
I had total concentration.,,,,,,,,,,,0,12,12,5,,,,,,,,,,,,,,4,1.546,3,211,2019_Apr_10_1608,Flow_endo_post,3.0.5,60.35891827,
I was not worried about what others might be thinking of me.,,,,,,,,,,,0,13,13,16,,,,,,,,,,,,,,4,1.202,3,211,2019_Apr_10_1608,Flow_endo_post,3.0.5,60.35891827,
I had a good idea while I was performing about how well I was doing.,,,,,,,,,,,0,14,14,8,,,,,,,,,,,,,,4,1.11,3,211,2019_Apr_10_1608,Flow_endo_post,3.0.5,60.35891827,
The way time passed seemed to be different from normal.,,,,,,,,,,,0,15,15,24,,,,,,,,,,,,,,2,2.858,3,211,2019_Apr_10_1608,Flow_endo_post,3.0.5,60.35891827,
I lost my normal awareness of time.,,,,,,,,,,,0,16,16,20,,,,,,,,,,,,,,4,1.796,3,211,2019_Apr_10_1608,Flow_endo_post,3.0.5,60.35891827,
I had no difficulty concentrating.,,,,,,,,,,,0,17,17,6,,,,,,,,,,,,,,4,1.107,3,211,2019_Apr_10_1608,Flow_endo_post,3.0.5,60.35891827,
I felt just the right amount of challenge. ,,,,,,,,,,,0,18,18,11,,,,,,,,,,,,,,4,1.112,3,211,2019_Apr_10_1608,Flow_endo_post,3.0.5,60.35891827,
I knew what I want to achieve.,,,,,,,,,,,0,19,19,1,,,,,,,,,,,,,,4,1.746,3,211,2019_Apr_10_1608,Flow_endo_post,3.0.5,60.35891827,
The challenge and my skills were at an equally high level.,,,,,,,,,,,0,20,20,10,,,,,,,,,,,,,,4,1.983,3,211,2019_Apr_10_1608,Flow_endo_post,3.0.5,60.35891827,
I performed automatically without having to think about it.,,,,,,,,,,,0,21,21,25,,,,,,,,,,,,,,2,2.953,3,211,2019_Apr_10_1608,Flow_endo_post,3.0.5,60.35891827,
I felt that I had everything under control.,,,,,,,,,,,0,22,22,13,,,,,,,,,,,,,,4,1.976,3,211,2019_Apr_10_1608,Flow_endo_post,3.0.5,60.35891827,
It was really clear to me how my performance was going.,,,,,,,,,,,0,23,23,7,,,,,,,,,,,,,,4,1.947,3,211,2019_Apr_10_1608,Flow_endo_post,3.0.5,60.35891827,
I had a strong sense of what I wanted to accomplish.,,,,,,,,,,,0,24,24,0,,,,,,,,,,,,,,4,2.471,3,211,2019_Apr_10_1608,Flow_endo_post,3.0.5,60.35891827,
My attention was focused entirely on what I was doing.,,,,,,,,,,,0,25,25,3,,,,,,,,,,,,,,4,1.118,3,211,2019_Apr_10_1608,Flow_endo_post,3.0.5,60.35891827,
