Questions,Stair.thisTrialN,Stair.stepSize,Stair.intensity,Stair2.thisTrialN,Stair2.stepSize,Stair2.intensity,controlQ.thisRepN,controlQ.thisTrialN,controlQ.thisN,controlQ.thisIndex,Qs.thisRepN,Qs.thisTrialN,Qs.thisN,Qs.thisIndex,cueExoPos,targetXOri,targetXPos,CorrectAns,Stair.response,keyPress_2.rt,keyPress_2.rl,cueOri,Stair2.response,keyPress.rt,keyPress.rl,key_start.keys,key_start.rt,Quest_Ans.response,Quest_Ans.rt,Session,Participant,date,expName,psychopyVersion,frameRate,
,0,1,81,,,,,,,,,,,,4.6,0,-4.6,left,1,0.919970443,left,,,,,,,,,2,13,2019_Apr_08_1332,Flow_exo_post,3.0.6,59.73920063,
,1,1,80,,,,,,,,,,,,4.6,90,4.6,right,1,0.467737961,right,,,,,,,,,2,13,2019_Apr_08_1332,Flow_exo_post,3.0.6,59.73920063,
,2,1,79,,,,,,,,,,,,4.6,0,4.6,right,1,0.452016581,right,,,,,,,,,2,13,2019_Apr_08_1332,Flow_exo_post,3.0.6,59.73920063,
,3,1,78,,,,,,,,,,,,-4.6,90,-4.6,left,1,0.31837619,left,,,,,,,,,2,13,2019_Apr_08_1332,Flow_exo_post,3.0.6,59.73920063,
,4,1,77,,,,,,,,,,,,4.6,0,-4.6,left,1,0.485244935,left,,,,,,,,,2,13,2019_Apr_08_1332,Flow_exo_post,3.0.6,59.73920063,
,5,1,76,,,,,,,,,,,,4.6,90,-4.6,left,1,0.419572389,left,,,,,,,,,2,13,2019_Apr_08_1332,Flow_exo_post,3.0.6,59.73920063,
,6,1,75,,,,,,,,,,,,4.6,90,-4.6,left,0,0.468858315,right,,,,,,,,,2,13,2019_Apr_08_1332,Flow_exo_post,3.0.6,59.73920063,
,7,1,76,,,,,,,,,,,,-4.6,90,-4.6,left,1,0.536011537,left,,,,,,,,,2,13,2019_Apr_08_1332,Flow_exo_post,3.0.6,59.73920063,
,8,1,76,,,,,,,,,,,,-4.6,0,4.6,right,1,0.568940456,right,,,,,,,,,2,13,2019_Apr_08_1332,Flow_exo_post,3.0.6,59.73920063,
,9,1,76,,,,,,,,,,,,-4.6,90,-4.6,left,1,0.435154568,left,,,,,,,,,2,13,2019_Apr_08_1332,Flow_exo_post,3.0.6,59.73920063,
,10,1,75,,,,,,,,,,,,4.6,90,-4.6,left,1,0.619697354,left,,,,,,,,,2,13,2019_Apr_08_1332,Flow_exo_post,3.0.6,59.73920063,
,11,1,75,,,,,,,,,,,,-4.6,0,-4.6,left,1,0.433323319,left,,,,,,,,,2,13,2019_Apr_08_1332,Flow_exo_post,3.0.6,59.73920063,
,12,1,75,,,,,,,,,,,,4.6,90,-4.6,left,1,0.518495932,left,,,,,,,,,2,13,2019_Apr_08_1332,Flow_exo_post,3.0.6,59.73920063,
,13,1,74,,,,,,,,,,,,4.6,0,4.6,right,1,0.718737967,right,,,,,,,,,2,13,2019_Apr_08_1332,Flow_exo_post,3.0.6,59.73920063,
,14,1,74,,,,,,,,,,,,4.6,0,4.6,right,1,0.451908567,right,,,,,,,,,2,13,2019_Apr_08_1332,Flow_exo_post,3.0.6,59.73920063,
,15,1,74,,,,,,,,,,,,4.6,0,-4.6,left,1,0.519036494,left,,,,,,,,,2,13,2019_Apr_08_1332,Flow_exo_post,3.0.6,59.73920063,
,16,1,73,,,,,,,,,,,,4.6,90,4.6,right,1,0.452515295,right,,,,,,,,,2,13,2019_Apr_08_1332,Flow_exo_post,3.0.6,59.73920063,
,17,1,73,,,,,,,,,,,,-4.6,0,4.6,right,1,0.783963078,right,,,,,,,,,2,13,2019_Apr_08_1332,Flow_exo_post,3.0.6,59.73920063,
,18,1,73,,,,,,,,,,,,4.6,90,-4.6,left,1,0.585815436,left,,,,,,,,,2,13,2019_Apr_08_1332,Flow_exo_post,3.0.6,59.73920063,
,19,1,72,,,,,,,,,,,,-4.6,0,4.6,right,1,0.585172293,right,,,,,,,,,2,13,2019_Apr_08_1332,Flow_exo_post,3.0.6,59.73920063,
,20,1,72,,,,,,,,,,,,4.6,90,-4.6,left,1,0.618286064,left,,,,,,,,,2,13,2019_Apr_08_1332,Flow_exo_post,3.0.6,59.73920063,
,21,1,72,,,,,,,,,,,,4.6,90,4.6,right,1,1.069888582,right,,,,,,,,,2,13,2019_Apr_08_1332,Flow_exo_post,3.0.6,59.73920063,
,22,1,71,,,,,,,,,,,,-4.6,0,4.6,right,1,0.585076309,right,,,,,,,,,2,13,2019_Apr_08_1332,Flow_exo_post,3.0.6,59.73920063,
,23,1,71,,,,,,,,,,,,4.6,90,-4.6,left,1,0.83535921,left,,,,,,,,,2,13,2019_Apr_08_1332,Flow_exo_post,3.0.6,59.73920063,
,24,1,71,,,,,,,,,,,,4.6,90,4.6,right,1,0.417330824,right,,,,,,,,,2,13,2019_Apr_08_1332,Flow_exo_post,3.0.6,59.73920063,
,25,1,70,,,,,,,,,,,,-4.6,90,4.6,right,1,0.635711475,right,,,,,,,,,2,13,2019_Apr_08_1332,Flow_exo_post,3.0.6,59.73920063,
,26,1,70,,,,,,,,,,,,4.6,0,-4.6,left,1,0.701246969,left,,,,,,,,,2,13,2019_Apr_08_1332,Flow_exo_post,3.0.6,59.73920063,
,27,1,70,,,,,,,,,,,,-4.6,90,-4.6,left,0,0.686763916,right,,,,,,,,,2,13,2019_Apr_08_1332,Flow_exo_post,3.0.6,59.73920063,
,28,1,71,,,,,,,,,,,,4.6,0,-4.6,left,1,0.50199126,left,,,,,,,,,2,13,2019_Apr_08_1332,Flow_exo_post,3.0.6,59.73920063,
,29,1,71,,,,,,,,,,,,4.6,90,-4.6,left,0,0.552370065,right,,,,,,,,,2,13,2019_Apr_08_1332,Flow_exo_post,3.0.6,59.73920063,
,30,1,72,,,,,,,,,,,,-4.6,0,-4.6,left,1,0.850589136,left,,,,,,,,,2,13,2019_Apr_08_1332,Flow_exo_post,3.0.6,59.73920063,
,31,1,72,,,,,,,,,,,,4.6,90,4.6,right,1,0.635472589,right,,,,,,,,,2,13,2019_Apr_08_1332,Flow_exo_post,3.0.6,59.73920063,
,32,1,72,,,,,,,,,,,,-4.6,0,-4.6,left,1,0.452482668,left,,,,,,,,,2,13,2019_Apr_08_1332,Flow_exo_post,3.0.6,59.73920063,
,33,1,71,,,,,,,,,,,,4.6,0,4.6,right,1,0.43392072,right,,,,,,,,,2,13,2019_Apr_08_1332,Flow_exo_post,3.0.6,59.73920063,
,34,1,71,,,,,,,,,,,,4.6,0,4.6,right,1,0.470539858,right,,,,,,,,,2,13,2019_Apr_08_1332,Flow_exo_post,3.0.6,59.73920063,
,35,1,71,,,,,,,,,,,,-4.6,90,-4.6,left,1,0.351380215,left,,,,,,,,,2,13,2019_Apr_08_1332,Flow_exo_post,3.0.6,59.73920063,
,36,1,70,,,,,,,,,,,,-4.6,0,-4.6,left,1,0.369116989,left,,,,,,,,,2,13,2019_Apr_08_1332,Flow_exo_post,3.0.6,59.73920063,
,37,1,70,,,,,,,,,,,,4.6,0,4.6,right,1,0.301595024,right,,,,,,,,,2,13,2019_Apr_08_1332,Flow_exo_post,3.0.6,59.73920063,
,38,1,70,,,,,,,,,,,,-4.6,0,4.6,right,1,0.718787978,right,,,,,,,,,2,13,2019_Apr_08_1332,Flow_exo_post,3.0.6,59.73920063,
,39,1,69,,,,,,,,,,,,-4.6,0,4.6,right,0,1.033755342,left,,,,,,,,,2,13,2019_Apr_08_1332,Flow_exo_post,3.0.6,59.73920063,
,40,1,70,,,,,,,,,,,,4.6,90,4.6,right,1,0.368877904,right,,,,,,,,,2,13,2019_Apr_08_1332,Flow_exo_post,3.0.6,59.73920063,
,41,1,70,,,,,,,,,,,,4.6,90,4.6,right,1,0.317378184,right,,,,,,,,,2,13,2019_Apr_08_1332,Flow_exo_post,3.0.6,59.73920063,
,42,1,70,,,,,,,,,,,,4.6,0,-4.6,left,1,0.553236933,left,,,,,,,,,2,13,2019_Apr_08_1332,Flow_exo_post,3.0.6,59.73920063,
,43,1,69,,,,,,,,,,,,4.6,90,4.6,right,1,0.802166415,right,,,,,,,,,2,13,2019_Apr_08_1332,Flow_exo_post,3.0.6,59.73920063,
,44,1,69,,,,,,,,,,,,4.6,0,4.6,right,1,0.484647511,right,,,,,,,,,2,13,2019_Apr_08_1332,Flow_exo_post,3.0.6,59.73920063,
,45,1,69,,,,,,,,,,,,-4.6,90,4.6,right,0,0.485026338,left,,,,,,,,,2,13,2019_Apr_08_1332,Flow_exo_post,3.0.6,59.73920063,
,46,1,70,,,,,,,,,,,,-4.6,0,4.6,right,1,0.752869249,right,,,,,,,,,2,13,2019_Apr_08_1332,Flow_exo_post,3.0.6,59.73920063,
,47,1,70,,,,,,,,,,,,4.6,90,-4.6,left,1,0.836186778,left,,,,,,,,,2,13,2019_Apr_08_1332,Flow_exo_post,3.0.6,59.73920063,
,48,1,70,,,,,,,,,,,,4.6,0,4.6,right,1,0.436234882,right,,,,,,,,,2,13,2019_Apr_08_1332,Flow_exo_post,3.0.6,59.73920063,
,49,1,69,,,,,,,,,,,,-4.6,0,4.6,right,1,0.6851303,right,,,,,,,,,2,13,2019_Apr_08_1332,Flow_exo_post,3.0.6,59.73920063,
,50,1,69,,,,,,,,,,,,-4.6,0,4.6,right,1,0.817696874,right,,,,,,,,,2,13,2019_Apr_08_1332,Flow_exo_post,3.0.6,59.73920063,
,51,1,69,,,,,,,,,,,,-4.6,90,-4.6,left,1,0.852672124,left,,,,,,,,,2,13,2019_Apr_08_1332,Flow_exo_post,3.0.6,59.73920063,
,52,1,68,,,,,,,,,,,,-4.6,90,-4.6,left,1,0.501402194,left,,,,,,,,,2,13,2019_Apr_08_1332,Flow_exo_post,3.0.6,59.73920063,
,53,1,68,,,,,,,,,,,,4.6,90,4.6,right,1,0.399818547,right,,,,,,,,,2,13,2019_Apr_08_1332,Flow_exo_post,3.0.6,59.73920063,
,54,1,68,,,,,,,,,,,,-4.6,90,-4.6,left,1,0.55208359,left,,,,,,,,,2,13,2019_Apr_08_1332,Flow_exo_post,3.0.6,59.73920063,
,55,1,67,,,,,,,,,,,,4.6,90,4.6,right,1,0.484953917,right,,,,,,,,,2,13,2019_Apr_08_1332,Flow_exo_post,3.0.6,59.73920063,
,56,1,67,,,,,,,,,,,,-4.6,90,-4.6,left,1,0.485463555,left,,,,,,,,,2,13,2019_Apr_08_1332,Flow_exo_post,3.0.6,59.73920063,
,57,1,67,,,,,,,,,,,,-4.6,90,-4.6,left,0,0.71885721,right,,,,,,,,,2,13,2019_Apr_08_1332,Flow_exo_post,3.0.6,59.73920063,
,58,1,68,,,,,,,,,,,,4.6,90,4.6,right,1,0.850843163,right,,,,,,,,,2,13,2019_Apr_08_1332,Flow_exo_post,3.0.6,59.73920063,
,59,1,68,,,,,,,,,,,,4.6,90,-4.6,left,0,0.501502597,right,,,,,,,,,2,13,2019_Apr_08_1332,Flow_exo_post,3.0.6,59.73920063,
,60,1,69,,,,,,,,,,,,-4.6,90,-4.6,left,1,0.45157505,left,,,,,,,,,2,13,2019_Apr_08_1332,Flow_exo_post,3.0.6,59.73920063,
,61,1,69,,,,,,,,,,,,-4.6,0,-4.6,left,1,0.404179729,left,,,,,,,,,2,13,2019_Apr_08_1332,Flow_exo_post,3.0.6,59.73920063,
,62,1,69,,,,,,,,,,,,4.6,0,4.6,right,1,0.335431337,right,,,,,,,,,2,13,2019_Apr_08_1332,Flow_exo_post,3.0.6,59.73920063,
,63,1,68,,,,,,,,,,,,-4.6,90,-4.6,left,1,0.634341291,left,,,,,,,,,2,13,2019_Apr_08_1332,Flow_exo_post,3.0.6,59.73920063,
,64,1,68,,,,,,,,,,,,4.6,0,-4.6,left,0,0.466924661,right,,,,,,,,,2,13,2019_Apr_08_1332,Flow_exo_post,3.0.6,59.73920063,
,65,1,69,,,,,,,,,,,,-4.6,0,-4.6,left,1,0.401950754,left,,,,,,,,,2,13,2019_Apr_08_1332,Flow_exo_post,3.0.6,59.73920063,
,66,1,69,,,,,,,,,,,,4.6,0,-4.6,left,0,0.552021903,right,,,,,,,,,2,13,2019_Apr_08_1332,Flow_exo_post,3.0.6,59.73920063,
,67,1,70,,,,,,,,,,,,-4.6,0,-4.6,left,1,0.419761291,left,,,,,,,,,2,13,2019_Apr_08_1332,Flow_exo_post,3.0.6,59.73920063,
,68,1,70,,,,,,,,,,,,-4.6,90,4.6,right,0,0.500751165,left,,,,,,,,,2,13,2019_Apr_08_1332,Flow_exo_post,3.0.6,59.73920063,
,69,1,71,,,,,,,,,,,,4.6,90,-4.6,left,0,0.469182937,right,,,,,,,,,2,13,2019_Apr_08_1332,Flow_exo_post,3.0.6,59.73920063,
,70,1,72,,,,,,,,,,,,4.6,90,-4.6,left,1,0.968873736,left,,,,,,,,,2,13,2019_Apr_08_1332,Flow_exo_post,3.0.6,59.73920063,
,71,1,72,,,,,,,,,,,,-4.6,90,-4.6,left,1,0.452504908,left,,,,,,,,,2,13,2019_Apr_08_1332,Flow_exo_post,3.0.6,59.73920063,
,72,1,72,,,,,,,,,,,,4.6,90,-4.6,left,0,0.467934416,right,,,,,,,,,2,13,2019_Apr_08_1332,Flow_exo_post,3.0.6,59.73920063,
,73,1,73,,,,,,,,,,,,-4.6,0,4.6,right,0,0.451945938,left,,,,,,,,,2,13,2019_Apr_08_1332,Flow_exo_post,3.0.6,59.73920063,
,74,1,74,,,,,,,,,,,,-4.6,90,-4.6,left,1,0.468647207,left,,,,,,,,,2,13,2019_Apr_08_1332,Flow_exo_post,3.0.6,59.73920063,
,75,1,74,,,,,,,,,,,,-4.6,0,4.6,right,1,0.703816489,right,,,,,,,,,2,13,2019_Apr_08_1332,Flow_exo_post,3.0.6,59.73920063,
,76,1,74,,,,,,,,,,,,-4.6,90,-4.6,left,1,0.518933841,left,,,,,,,,,2,13,2019_Apr_08_1332,Flow_exo_post,3.0.6,59.73920063,
,77,1,73,,,,,,,,,,,,-4.6,0,4.6,right,1,0.651771195,right,,,,,,,,,2,13,2019_Apr_08_1332,Flow_exo_post,3.0.6,59.73920063,
,78,1,73,,,,,,,,,,,,-4.6,90,-4.6,left,1,0.585714274,left,,,,,,,,,2,13,2019_Apr_08_1332,Flow_exo_post,3.0.6,59.73920063,
,79,1,73,,,,,,,,,,,,-4.6,90,-4.6,left,1,0.852705919,left,,,,,,,,,2,13,2019_Apr_08_1332,Flow_exo_post,3.0.6,59.73920063,
,80,1,72,,,,,,,,,,,,-4.6,0,-4.6,left,1,0.70219717,left,,,,,,,,,2,13,2019_Apr_08_1332,Flow_exo_post,3.0.6,59.73920063,
,81,1,72,,,,,,,,,,,,4.6,90,4.6,right,1,0.551311646,right,,,,,,,,,2,13,2019_Apr_08_1332,Flow_exo_post,3.0.6,59.73920063,
,82,1,72,,,,,,,,,,,,-4.6,0,-4.6,left,1,0.501242259,left,,,,,,,,,2,13,2019_Apr_08_1332,Flow_exo_post,3.0.6,59.73920063,
,83,1,71,,,,,,,,,,,,-4.6,90,4.6,right,1,1.469965166,right,,,,,,,,,2,13,2019_Apr_08_1332,Flow_exo_post,3.0.6,59.73920063,
,84,1,71,,,,,,,,,,,,4.6,90,-4.6,left,1,1.019229811,left,,,,,,,,,2,13,2019_Apr_08_1332,Flow_exo_post,3.0.6,59.73920063,
,85,1,71,,,,,,,,,,,,4.6,90,4.6,right,1,0.451606183,right,,,,,,,,,2,13,2019_Apr_08_1332,Flow_exo_post,3.0.6,59.73920063,
,86,1,70,,,,,,,,,,,,4.6,90,4.6,right,1,0.435717578,right,,,,,,,,,2,13,2019_Apr_08_1332,Flow_exo_post,3.0.6,59.73920063,
,87,1,70,,,,,,,,,,,,4.6,90,-4.6,left,1,0.868066114,left,,,,,,,,,2,13,2019_Apr_08_1332,Flow_exo_post,3.0.6,59.73920063,
,88,1,70,,,,,,,,,,,,-4.6,90,4.6,right,1,1.218394346,right,,,,,,,,,2,13,2019_Apr_08_1332,Flow_exo_post,3.0.6,59.73920063,
,89,1,69,,,,,,,,,,,,-4.6,0,-4.6,left,1,1.386799563,left,,,,,,,,,2,13,2019_Apr_08_1332,Flow_exo_post,3.0.6,59.73920063,
,90,1,69,,,,,,,,,,,,-4.6,90,-4.6,left,1,0.502542046,left,,,,,,,,,2,13,2019_Apr_08_1332,Flow_exo_post,3.0.6,59.73920063,
,91,1,69,,,,,,,,,,,,4.6,0,-4.6,left,1,0.953908101,left,,,,,,,,,2,13,2019_Apr_08_1332,Flow_exo_post,3.0.6,59.73920063,
,92,1,68,,,,,,,,,,,,-4.6,90,-4.6,left,1,0.502167516,left,,,,,,,,,2,13,2019_Apr_08_1332,Flow_exo_post,3.0.6,59.73920063,
,93,1,68,,,,,,,,,,,,4.6,0,-4.6,left,0,0.467613574,right,,,,,,,,,2,13,2019_Apr_08_1332,Flow_exo_post,3.0.6,59.73920063,
,94,1,69,,,,,,,,,,,,-4.6,0,-4.6,left,1,0.399370539,left,,,,,,,,,2,13,2019_Apr_08_1332,Flow_exo_post,3.0.6,59.73920063,
,95,1,69,,,,,,,,,,,,4.6,0,-4.6,left,1,0.786499936,left,,,,,,,,,2,13,2019_Apr_08_1332,Flow_exo_post,3.0.6,59.73920063,
,96,1,69,,,,,,,,,,,,-4.6,90,-4.6,left,1,0.869333005,left,,,,,,,,,2,13,2019_Apr_08_1332,Flow_exo_post,3.0.6,59.73920063,
,,,,0,1,81,,,,,,,,,,0,4.6,right,,,,180,1,0.834359281,right,,,,,2,13,2019_Apr_08_1332,Flow_exo_post,3.0.6,59.73920063,
,,,,1,1,80,,,,,,,,,,90,4.6,right,,,,180,1,0.851860101,right,,,,,2,13,2019_Apr_08_1332,Flow_exo_post,3.0.6,59.73920063,
,,,,2,1,79,,,,,,,,,,90,-4.6,left,,,,180,1,0.569355526,left,,,,,2,13,2019_Apr_08_1332,Flow_exo_post,3.0.6,59.73920063,
,,,,3,1,78,,,,,,,,,,0,4.6,right,,,,0,1,0.684980208,right,,,,,2,13,2019_Apr_08_1332,Flow_exo_post,3.0.6,59.73920063,
,,,,4,1,77,,,,,,,,,,0,-4.6,left,,,,0,1,0.635695349,left,,,,,2,13,2019_Apr_08_1332,Flow_exo_post,3.0.6,59.73920063,
,,,,5,1,76,,,,,,,,,,90,-4.6,left,,,,0,1,0.66943263,left,,,,,2,13,2019_Apr_08_1332,Flow_exo_post,3.0.6,59.73920063,
,,,,6,1,75,,,,,,,,,,90,-4.6,left,,,,0,1,1.03419004,left,,,,,2,13,2019_Apr_08_1332,Flow_exo_post,3.0.6,59.73920063,
,,,,7,1,74,,,,,,,,,,90,4.6,right,,,,0,1,0.684728809,right,,,,,2,13,2019_Apr_08_1332,Flow_exo_post,3.0.6,59.73920063,
,,,,8,1,73,,,,,,,,,,90,4.6,right,,,,0,1,0.734888981,right,,,,,2,13,2019_Apr_08_1332,Flow_exo_post,3.0.6,59.73920063,
,,,,9,1,72,,,,,,,,,,90,-4.6,left,,,,180,1,0.635480909,left,,,,,2,13,2019_Apr_08_1332,Flow_exo_post,3.0.6,59.73920063,
,,,,10,1,71,,,,,,,,,,0,-4.6,left,,,,180,1,0.753633971,left,,,,,2,13,2019_Apr_08_1332,Flow_exo_post,3.0.6,59.73920063,
,,,,11,1,70,,,,,,,,,,90,-4.6,left,,,,180,1,0.602668048,left,,,,,2,13,2019_Apr_08_1332,Flow_exo_post,3.0.6,59.73920063,
,,,,12,1,69,,,,,,,,,,0,4.6,right,,,,0,1,0.78374504,right,,,,,2,13,2019_Apr_08_1332,Flow_exo_post,3.0.6,59.73920063,
,,,,13,1,68,,,,,,,,,,90,4.6,right,,,,0,1,0.935716993,right,,,,,2,13,2019_Apr_08_1332,Flow_exo_post,3.0.6,59.73920063,
,,,,14,1,67,,,,,,,,,,0,-4.6,left,,,,0,1,1.219284293,left,,,,,2,13,2019_Apr_08_1332,Flow_exo_post,3.0.6,59.73920063,
,,,,15,1,66,,,,,,,,,,0,4.6,right,,,,0,1,1.019865341,right,,,,,2,13,2019_Apr_08_1332,Flow_exo_post,3.0.6,59.73920063,
,,,,16,1,65,,,,,,,,,,90,4.6,right,,,,180,1,0.751933906,right,,,,,2,13,2019_Apr_08_1332,Flow_exo_post,3.0.6,59.73920063,
,,,,17,1,65,,,,,,,,,,0,-4.6,left,,,,0,1,1.368708834,left,,,,,2,13,2019_Apr_08_1332,Flow_exo_post,3.0.6,59.73920063,
,,,,18,1,65,,,,,,,,,,90,4.6,right,,,,0,0,1.699942,left,,,,,2,13,2019_Apr_08_1332,Flow_exo_post,3.0.6,59.73920063,
,,,,19,1,66,,,,,,,,,,90,-4.6,left,,,,180,0,0.633588357,right,,,,,2,13,2019_Apr_08_1332,Flow_exo_post,3.0.6,59.73920063,
,,,,20,1,67,,,,,,,,,,0,4.6,right,,,,180,1,0.586418216,right,,,,,2,13,2019_Apr_08_1332,Flow_exo_post,3.0.6,59.73920063,
,,,,21,1,67,,,,,,,,,,90,4.6,right,,,,0,0,1.118925005,left,,,,,2,13,2019_Apr_08_1332,Flow_exo_post,3.0.6,59.73920063,
,,,,22,1,68,,,,,,,,,,90,-4.6,left,,,,0,1,0.550470571,left,,,,,2,13,2019_Apr_08_1332,Flow_exo_post,3.0.6,59.73920063,
,,,,23,1,68,,,,,,,,,,0,-4.6,left,,,,180,1,0.752190799,left,,,,,2,13,2019_Apr_08_1332,Flow_exo_post,3.0.6,59.73920063,
,,,,24,1,68,,,,,,,,,,90,-4.6,left,,,,180,1,0.98567679,left,,,,,2,13,2019_Apr_08_1332,Flow_exo_post,3.0.6,59.73920063,
,,,,25,1,67,,,,,,,,,,90,-4.6,left,,,,180,0,1.035580184,right,,,,,2,13,2019_Apr_08_1332,Flow_exo_post,3.0.6,59.73920063,
,,,,26,1,68,,,,,,,,,,90,4.6,right,,,,180,1,0.954658645,right,,,,,2,13,2019_Apr_08_1332,Flow_exo_post,3.0.6,59.73920063,
,,,,27,1,68,,,,,,,,,,0,-4.6,left,,,,0,1,0.534884902,left,,,,,2,13,2019_Apr_08_1332,Flow_exo_post,3.0.6,59.73920063,
,,,,28,1,68,,,,,,,,,,0,-4.6,left,,,,180,1,0.918871219,left,,,,,2,13,2019_Apr_08_1332,Flow_exo_post,3.0.6,59.73920063,
,,,,29,1,67,,,,,,,,,,0,-4.6,left,,,,0,1,0.636427961,left,,,,,2,13,2019_Apr_08_1332,Flow_exo_post,3.0.6,59.73920063,
,,,,30,1,67,,,,,,,,,,0,4.6,right,,,,180,1,0.669298103,right,,,,,2,13,2019_Apr_08_1332,Flow_exo_post,3.0.6,59.73920063,
,,,,31,1,67,,,,,,,,,,0,-4.6,left,,,,0,1,0.552222775,left,,,,,2,13,2019_Apr_08_1332,Flow_exo_post,3.0.6,59.73920063,
,,,,32,1,66,,,,,,,,,,90,-4.6,left,,,,0,0,0.684816594,right,,,,,2,13,2019_Apr_08_1332,Flow_exo_post,3.0.6,59.73920063,
,,,,33,1,67,,,,,,,,,,90,4.6,right,,,,180,0,1.33510241,left,,,,,2,13,2019_Apr_08_1332,Flow_exo_post,3.0.6,59.73920063,
,,,,34,1,68,,,,,,,,,,90,-4.6,left,,,,0,1,1.001862196,left,,,,,2,13,2019_Apr_08_1332,Flow_exo_post,3.0.6,59.73920063,
,,,,35,1,68,,,,,,,,,,90,-4.6,left,,,,0,1,1.453679898,left,,,,,2,13,2019_Apr_08_1332,Flow_exo_post,3.0.6,59.73920063,
,,,,36,1,68,,,,,,,,,,90,4.6,right,,,,0,0,0.601652076,left,,,,,2,13,2019_Apr_08_1332,Flow_exo_post,3.0.6,59.73920063,
,,,,37,1,69,,,,,,,,,,0,-4.6,left,,,,0,1,0.469946806,left,,,,,2,13,2019_Apr_08_1332,Flow_exo_post,3.0.6,59.73920063,
,,,,38,1,69,,,,,,,,,,0,4.6,right,,,,180,1,0.502494988,right,,,,,2,13,2019_Apr_08_1332,Flow_exo_post,3.0.6,59.73920063,
,,,,39,1,69,,,,,,,,,,90,4.6,right,,,,180,1,0.602017885,right,,,,,2,13,2019_Apr_08_1332,Flow_exo_post,3.0.6,59.73920063,
,,,,40,1,68,,,,,,,,,,90,-4.6,left,,,,0,1,1.118401465,left,,,,,2,13,2019_Apr_08_1332,Flow_exo_post,3.0.6,59.73920063,
,,,,41,1,68,,,,,,,,,,0,4.6,right,,,,0,1,0.884282784,right,,,,,2,13,2019_Apr_08_1332,Flow_exo_post,3.0.6,59.73920063,
,,,,42,1,68,,,,,,,,,,90,4.6,right,,,,0,1,0.752527703,right,,,,,2,13,2019_Apr_08_1332,Flow_exo_post,3.0.6,59.73920063,
,,,,43,1,67,,,,,,,,,,90,-4.6,left,,,,180,0,0.519484506,right,,,,,2,13,2019_Apr_08_1332,Flow_exo_post,3.0.6,59.73920063,
,,,,44,1,68,,,,,,,,,,0,-4.6,left,,,,0,1,0.451014184,left,,,,,2,13,2019_Apr_08_1332,Flow_exo_post,3.0.6,59.73920063,
,,,,45,1,68,,,,,,,,,,0,4.6,right,,,,180,1,0.468880748,right,,,,,2,13,2019_Apr_08_1332,Flow_exo_post,3.0.6,59.73920063,
,,,,46,1,68,,,,,,,,,,90,-4.6,left,,,,0,1,0.918592894,left,,,,,2,13,2019_Apr_08_1332,Flow_exo_post,3.0.6,59.73920063,
,,,,47,1,67,,,,,,,,,,90,4.6,right,,,,180,1,0.86806957,right,,,,,2,13,2019_Apr_08_1332,Flow_exo_post,3.0.6,59.73920063,
,,,,48,1,67,,,,,,,,,,0,-4.6,left,,,,0,1,0.701817369,left,,,,,2,13,2019_Apr_08_1332,Flow_exo_post,3.0.6,59.73920063,
,,,,49,1,67,,,,,,,,,,90,4.6,right,,,,180,1,0.448116287,right,,,,,2,13,2019_Apr_08_1332,Flow_exo_post,3.0.6,59.73920063,
,,,,50,1,66,,,,,,,,,,90,4.6,right,,,,0,0,0.635968349,left,,,,,2,13,2019_Apr_08_1332,Flow_exo_post,3.0.6,59.73920063,
,,,,51,1,67,,,,,,,,,,90,4.6,right,,,,0,0,0.76868686,left,,,,,2,13,2019_Apr_08_1332,Flow_exo_post,3.0.6,59.73920063,
,,,,52,1,68,,,,,,,,,,90,-4.6,left,,,,0,0,1.202232282,right,,,,,2,13,2019_Apr_08_1332,Flow_exo_post,3.0.6,59.73920063,
,,,,53,1,69,,,,,,,,,,0,4.6,right,,,,180,1,0.566935303,right,,,,,2,13,2019_Apr_08_1332,Flow_exo_post,3.0.6,59.73920063,
,,,,54,1,69,,,,,,,,,,0,4.6,right,,,,0,1,0.635708358,right,,,,,2,13,2019_Apr_08_1332,Flow_exo_post,3.0.6,59.73920063,
,,,,55,1,69,,,,,,,,,,0,4.6,right,,,,180,1,0.4174907,right,,,,,2,13,2019_Apr_08_1332,Flow_exo_post,3.0.6,59.73920063,
,,,,56,1,68,,,,,,,,,,90,-4.6,left,,,,0,1,1.034344853,left,,,,,2,13,2019_Apr_08_1332,Flow_exo_post,3.0.6,59.73920063,
,,,,57,1,68,,,,,,,,,,0,4.6,right,,,,0,1,0.851354725,right,,,,,2,13,2019_Apr_08_1332,Flow_exo_post,3.0.6,59.73920063,
,,,,58,1,68,,,,,,,,,,0,4.6,right,,,,0,1,0.734831755,right,,,,,2,13,2019_Apr_08_1332,Flow_exo_post,3.0.6,59.73920063,
,,,,59,1,67,,,,,,,,,,0,-4.6,left,,,,0,1,0.484977579,left,,,,,2,13,2019_Apr_08_1332,Flow_exo_post,3.0.6,59.73920063,
,,,,60,1,67,,,,,,,,,,90,-4.6,left,,,,180,0,0.450969278,right,,,,,2,13,2019_Apr_08_1332,Flow_exo_post,3.0.6,59.73920063,
,,,,61,1,68,,,,,,,,,,90,4.6,right,,,,180,0,0.636733896,left,,,,,2,13,2019_Apr_08_1332,Flow_exo_post,3.0.6,59.73920063,
,,,,62,1,69,,,,,,,,,,0,4.6,right,,,,180,1,0.686257168,right,,,,,2,13,2019_Apr_08_1332,Flow_exo_post,3.0.6,59.73920063,
,,,,63,1,69,,,,,,,,,,90,4.6,right,,,,180,1,0.51905578,right,,,,,2,13,2019_Apr_08_1332,Flow_exo_post,3.0.6,59.73920063,
,,,,64,1,69,,,,,,,,,,0,4.6,right,,,,0,1,0.737149809,right,,,,,2,13,2019_Apr_08_1332,Flow_exo_post,3.0.6,59.73920063,
,,,,65,1,68,,,,,,,,,,0,4.6,right,,,,180,1,0.41861116,right,,,,,2,13,2019_Apr_08_1332,Flow_exo_post,3.0.6,59.73920063,
,,,,66,1,68,,,,,,,,,,0,4.6,right,,,,180,1,0.401571741,right,,,,,2,13,2019_Apr_08_1332,Flow_exo_post,3.0.6,59.73920063,
,,,,67,1,68,,,,,,,,,,90,4.6,right,,,,0,0,0.483936939,left,,,,,2,13,2019_Apr_08_1332,Flow_exo_post,3.0.6,59.73920063,
,,,,68,1,69,,,,,,,,,,90,-4.6,left,,,,0,1,1.052081623,left,,,,,2,13,2019_Apr_08_1332,Flow_exo_post,3.0.6,59.73920063,
,,,,69,1,69,,,,,,,,,,0,-4.6,left,,,,0,1,0.552906867,left,,,,,2,13,2019_Apr_08_1332,Flow_exo_post,3.0.6,59.73920063,
,,,,70,1,69,,,,,,,,,,90,4.6,right,,,,0,1,0.801529589,right,,,,,2,13,2019_Apr_08_1332,Flow_exo_post,3.0.6,59.73920063,
,,,,,,,,,,,,,,,,,,,,,,,,,,space,2.335567398,,,2,13,2019_Apr_08_1332,Flow_exo_post,3.0.6,59.73920063,
My state (body feelings, emotions and thoughts) during the task on the computer was similar to the state I had during my sport performance.,,,,,,,0,0,0,0,,,,,,,,,,,,,,,,,,2,8.739,2,13,2019_Apr_08_1332,Flow_exo_post,3.0.6,59.73920063
Time seemed to alter (either slows down or speeds up).,,,,,,,,,,,0,0,0,23,,,,,,,,,,,,,,4,4.486,2,13,2019_Apr_08_1332,Flow_exo_post,3.0.6,59.73920063,
I really enjoyed the experience.,,,,,,,,,,,0,1,1,17,,,,,,,,,,,,,,2,2.594,2,13,2019_Apr_08_1332,Flow_exo_post,3.0.6,59.73920063,
I felt just the right amount of challenge. ,,,,,,,,,,,0,2,2,11,,,,,,,,,,,,,,4,2.46,2,13,2019_Apr_08_1332,Flow_exo_post,3.0.6,59.73920063,
I had a good idea while I was performing about how well I was doing.,,,,,,,,,,,0,3,3,8,,,,,,,,,,,,,,4,2.793,2,13,2019_Apr_08_1332,Flow_exo_post,3.0.6,59.73920063,
I was not worried about what others might be thinking of me.,,,,,,,,,,,0,4,4,16,,,,,,,,,,,,,,5,4.154,2,13,2019_Apr_08_1332,Flow_exo_post,3.0.6,59.73920063,
I was not concerned with how I was presenting myself.,,,,,,,,,,,0,5,5,15,,,,,,,,,,,,,,2,3.277,2,13,2019_Apr_08_1332,Flow_exo_post,3.0.6,59.73920063,
I was not concerned with how others might be evaluating me.,,,,,,,,,,,0,6,6,14,,,,,,,,,,,,,,5,6.393,2,13,2019_Apr_08_1332,Flow_exo_post,3.0.6,59.73920063,
I did things spontaneously without having to think.,,,,,,,,,,,0,7,7,22,,,,,,,,,,,,,,4,3.523,2,13,2019_Apr_08_1332,Flow_exo_post,3.0.6,59.73920063,
I felt as though I had everything under control.,,,,,,,,,,,0,8,8,12,,,,,,,,,,,,,,3,2.775,2,13,2019_Apr_08_1332,Flow_exo_post,3.0.6,59.73920063,
I lost my normal awareness of time.,,,,,,,,,,,0,9,9,20,,,,,,,,,,,,,,1,4.894,2,13,2019_Apr_08_1332,Flow_exo_post,3.0.6,59.73920063,
It was no effort to keep my mind on what was happening.,,,,,,,,,,,0,10,10,4,,,,,,,,,,,,,,2,8.963,2,13,2019_Apr_08_1332,Flow_exo_post,3.0.6,59.73920063,
It was really clear to me how my performance was going.,,,,,,,,,,,0,11,11,7,,,,,,,,,,,,,,2,4.609,2,13,2019_Apr_08_1332,Flow_exo_post,3.0.6,59.73920063,
The experience left me feeling great.,,,,,,,,,,,0,12,12,18,,,,,,,,,,,,,,2,1.942,2,13,2019_Apr_08_1332,Flow_exo_post,3.0.6,59.73920063,
The way time passed seemed to be different from normal.,,,,,,,,,,,0,13,13,24,,,,,,,,,,,,,,2,3.744,2,13,2019_Apr_08_1332,Flow_exo_post,3.0.6,59.73920063,
Things just seemed to happen automatically.,,,,,,,,,,,0,14,14,21,,,,,,,,,,,,,,4,3.092,2,13,2019_Apr_08_1332,Flow_exo_post,3.0.6,59.73920063,
My attention was focused entirely on what I was doing.,,,,,,,,,,,0,15,15,3,,,,,,,,,,,,,,3,3.244,2,13,2019_Apr_08_1332,Flow_exo_post,3.0.6,59.73920063,
I had total concentration.,,,,,,,,,,,0,16,16,5,,,,,,,,,,,,,,3,1.144,2,13,2019_Apr_08_1332,Flow_exo_post,3.0.6,59.73920063,
I was challenged, but I believe my skills will allow me to meet that challenge.,,,,,,,,,,,0,17,17,9,,,,,,,,,,,,,,5,3.374,2,13,2019_Apr_08_1332,Flow_exo_post,3.0.6,59.73920063
I knew what I want to achieve.,,,,,,,,,,,0,18,18,1,,,,,,,,,,,,,,5,1.576,2,13,2019_Apr_08_1332,Flow_exo_post,3.0.6,59.73920063,
The experience was extremely rewarding.,,,,,,,,,,,0,19,19,19,,,,,,,,,,,,,,4,2.093,2,13,2019_Apr_08_1332,Flow_exo_post,3.0.6,59.73920063,
My goals were clearly defined. ,,,,,,,,,,,0,20,20,2,,,,,,,,,,,,,,5,1.778,2,13,2019_Apr_08_1332,Flow_exo_post,3.0.6,59.73920063,
I had a strong sense of what I wanted to accomplish.,,,,,,,,,,,0,21,21,0,,,,,,,,,,,,,,5,2.959,2,13,2019_Apr_08_1332,Flow_exo_post,3.0.6,59.73920063,
I felt that I had everything under control.,,,,,,,,,,,0,22,22,13,,,,,,,,,,,,,,4,2.344,2,13,2019_Apr_08_1332,Flow_exo_post,3.0.6,59.73920063,
I performed automatically without having to think about it.,,,,,,,,,,,0,23,23,25,,,,,,,,,,,,,,3,3.108,2,13,2019_Apr_08_1332,Flow_exo_post,3.0.6,59.73920063,
The challenge and my skills were at an equally high level.,,,,,,,,,,,0,24,24,10,,,,,,,,,,,,,,5,4.321,2,13,2019_Apr_08_1332,Flow_exo_post,3.0.6,59.73920063,
I had no difficulty concentrating.,,,,,,,,,,,0,25,25,6,,,,,,,,,,,,,,3,3.562,2,13,2019_Apr_08_1332,Flow_exo_post,3.0.6,59.73920063,
