Stair.thisTrialN;Stair.stepSize;Stair.intensity;Stair2.thisTrialN;Stair2.stepSize;Stair2.intensity;cueOri;targetXOri;targetXPos;CorrectAns;Stair.response;keyPress.rt;keyPress.rl;cueExoPos;Stair2.response;keyPress_2.rt;keyPress_2.rl;Time_pas_Ans.response;Time_pas_Ans.rt;Session;Participant;date;expName;psychopyVersion;frameRate
0;1;81;;;;180;0;-4.6;left;1;0.751777259;left;;;;;;;1;122;2019_Apr_01_1214;Flow_endo_pre;3.0.5;59.58706048
1;1;80;;;;0;90;-4.6;left;1;1.789743142;left;;;;;;;1;122;2019_Apr_01_1214;Flow_endo_pre;3.0.5;59.58706048
2;1;79;;;;0;0;4.6;right;1;1.193596956;right;;;;;;;1;122;2019_Apr_01_1214;Flow_endo_pre;3.0.5;59.58706048
3;1;78;;;;180;90;4.6;right;1;0.868124458;right;;;;;;;1;122;2019_Apr_01_1214;Flow_endo_pre;3.0.5;59.58706048
4;1;77;;;;180;0;-4.6;left;1;0.755521011;left;;;;;;;1;122;2019_Apr_01_1214;Flow_endo_pre;3.0.5;59.58706048
5;1;76;;;;180;90;-4.6;left;1;0.806890712;left;;;;;;;1;122;2019_Apr_01_1214;Flow_endo_pre;3.0.5;59.58706048
6;1;75;;;;180;90;-4.6;left;1;0.703661733;left;;;;;;;1;122;2019_Apr_01_1214;Flow_endo_pre;3.0.5;59.58706048
7;1;74;;;;0;0;4.6;right;1;0.619212325;right;;;;;;;1;122;2019_Apr_01_1214;Flow_endo_pre;3.0.5;59.58706048
8;1;73;;;;180;90;4.6;right;1;0.784493195;right;;;;;;;1;122;2019_Apr_01_1214;Flow_endo_pre;3.0.5;59.58706048
9;1;72;;;;180;0;4.6;right;1;0.654111122;right;;;;;;;1;122;2019_Apr_01_1214;Flow_endo_pre;3.0.5;59.58706048
10;1;71;;;;180;90;-4.6;left;1;0.766476669;left;;;;;;;1;122;2019_Apr_01_1214;Flow_endo_pre;3.0.5;59.58706048
11;1;70;;;;0;0;-4.6;left;1;0.602102416;left;;;;;;;1;122;2019_Apr_01_1214;Flow_endo_pre;3.0.5;59.58706048
12;1;69;;;;180;0;-4.6;left;1;0.686284303;left;;;;;;;1;122;2019_Apr_01_1214;Flow_endo_pre;3.0.5;59.58706048
13;1;68;;;;0;90;-4.6;left;1;1.035910296;left;;;;;;;1;122;2019_Apr_01_1214;Flow_endo_pre;3.0.5;59.58706048
14;1;67;;;;0;0;4.6;right;1;0.702123484;right;;;;;;;1;122;2019_Apr_01_1214;Flow_endo_pre;3.0.5;59.58706048
15;1;66;;;;180;90;-4.6;left;1;0.62064564;left;;;;;;;1;122;2019_Apr_01_1214;Flow_endo_pre;3.0.5;59.58706048
16;1;65;;;;0;0;-4.6;left;0;0.621590598;right;;;;;;;1;122;2019_Apr_01_1214;Flow_endo_pre;3.0.5;59.58706048
17;1;66;;;;0;90;-4.6;left;1;0.685520257;left;;;;;;;1;122;2019_Apr_01_1214;Flow_endo_pre;3.0.5;59.58706048
18;1;66;;;;0;0;4.6;right;1;0.656968553;right;;;;;;;1;122;2019_Apr_01_1214;Flow_endo_pre;3.0.5;59.58706048
19;1;66;;;;0;0;-4.6;left;0;0.782210108;right;;;;;;;1;122;2019_Apr_01_1214;Flow_endo_pre;3.0.5;59.58706048
20;1;67;;;;180;90;4.6;right;1;1.156532604;right;;;;;;;1;122;2019_Apr_01_1214;Flow_endo_pre;3.0.5;59.58706048
21;1;67;;;;180;90;4.6;right;1;1.020159759;right;;;;;;;1;122;2019_Apr_01_1214;Flow_endo_pre;3.0.5;59.58706048
22;1;67;;;;180;90;4.6;right;0;2.759133957;left;;;;;;;1;122;2019_Apr_01_1214;Flow_endo_pre;3.0.5;59.58706048
23;1;68;;;;0;90;-4.6;left;1;1.709379288;left;;;;;;;1;122;2019_Apr_01_1214;Flow_endo_pre;3.0.5;59.58706048
24;1;68;;;;180;90;4.6;right;1;1.668828822;right;;;;;;;1;122;2019_Apr_01_1214;Flow_endo_pre;3.0.5;59.58706048
25;1;68;;;;180;0;-4.6;left;1;0.735665097;left;;;;;;;1;122;2019_Apr_01_1214;Flow_endo_pre;3.0.5;59.58706048
26;1;67;;;;0;90;4.6;right;0;1.22409723;left;;;;;;;1;122;2019_Apr_01_1214;Flow_endo_pre;3.0.5;59.58706048
27;1;68;;;;180;90;-4.6;left;1;1.692536713;left;;;;;;;1;122;2019_Apr_01_1214;Flow_endo_pre;3.0.5;59.58706048
28;1;68;;;;0;0;4.6;right;1;0.755126854;right;;;;;;;1;122;2019_Apr_01_1214;Flow_endo_pre;3.0.5;59.58706048
29;1;68;;;;180;0;-4.6;left;1;0.988092828;left;;;;;;;1;122;2019_Apr_01_1214;Flow_endo_pre;3.0.5;59.58706048
30;1;67;;;;0;90;4.6;right;1;0.770492712;right;;;;;;;1;122;2019_Apr_01_1214;Flow_endo_pre;3.0.5;59.58706048
31;1;67;;;;180;0;4.6;right;1;1.841026519;right;;;;;;;1;122;2019_Apr_01_1214;Flow_endo_pre;3.0.5;59.58706048
32;1;67;;;;180;0;4.6;right;1;0.851771353;right;;;;;;;1;122;2019_Apr_01_1214;Flow_endo_pre;3.0.5;59.58706048
33;1;66;;;;180;0;-4.6;left;1;0.936475415;left;;;;;;;1;122;2019_Apr_01_1214;Flow_endo_pre;3.0.5;59.58706048
34;1;66;;;;0;90;4.6;right;0;1.071328089;left;;;;;;;1;122;2019_Apr_01_1214;Flow_endo_pre;3.0.5;59.58706048
35;1;67;;;;0;90;-4.6;left;0;0.924513296;right;;;;;;;1;122;2019_Apr_01_1214;Flow_endo_pre;3.0.5;59.58706048
36;1;68;;;;0;90;4.6;right;1;1.291930917;right;;;;;;;1;122;2019_Apr_01_1214;Flow_endo_pre;3.0.5;59.58706048
37;1;68;;;;180;0;4.6;right;1;1.442152268;right;;;;;;;1;122;2019_Apr_01_1214;Flow_endo_pre;3.0.5;59.58706048
38;1;68;;;;180;90;-4.6;left;1;1.105062655;left;;;;;;;1;122;2019_Apr_01_1214;Flow_endo_pre;3.0.5;59.58706048
39;1;67;;;;180;0;-4.6;left;1;1.121571016;left;;;;;;;1;122;2019_Apr_01_1214;Flow_endo_pre;3.0.5;59.58706048
40;1;67;;;;180;90;4.6;right;0;0.819524352;left;;;;;;;1;122;2019_Apr_01_1214;Flow_endo_pre;3.0.5;59.58706048
41;1;68;;;;0;0;-4.6;left;1;1.759130013;left;;;;;;;1;122;2019_Apr_01_1214;Flow_endo_pre;3.0.5;59.58706048
42;1;68;;;;180;90;-4.6;left;1;1.139984763;left;;;;;;;1;122;2019_Apr_01_1214;Flow_endo_pre;3.0.5;59.58706048
43;1;68;;;;180;90;4.6;right;1;1.051059108;right;;;;;;;1;122;2019_Apr_01_1214;Flow_endo_pre;3.0.5;59.58706048
44;1;67;;;;180;0;4.6;right;0;2.41472214;left;;;;;;;1;122;2019_Apr_01_1214;Flow_endo_pre;3.0.5;59.58706048
45;1;68;;;;0;0;-4.6;left;1;1.168281991;left;;;;;;;1;122;2019_Apr_01_1214;Flow_endo_pre;3.0.5;59.58706048
46;1;68;;;;0;0;-4.6;left;1;1.590622442;left;;;;;;;1;122;2019_Apr_01_1214;Flow_endo_pre;3.0.5;59.58706048
47;1;68;;;;180;90;4.6;right;1;0.804382919;right;;;;;;;1;122;2019_Apr_01_1214;Flow_endo_pre;3.0.5;59.58706048
48;1;67;;;;0;0;-4.6;left;1;1.791921545;left;;;;;;;1;122;2019_Apr_01_1214;Flow_endo_pre;3.0.5;59.58706048
49;1;67;;;;0;90;4.6;right;0;1.120057073;left;;;;;;;1;122;2019_Apr_01_1214;Flow_endo_pre;3.0.5;59.58706048
50;1;68;;;;0;0;-4.6;left;1;0.871395645;left;;;;;;;1;122;2019_Apr_01_1214;Flow_endo_pre;3.0.5;59.58706048
51;1;68;;;;180;90;-4.6;left;1;0.902876144;left;;;;;;;1;122;2019_Apr_01_1214;Flow_endo_pre;3.0.5;59.58706048
52;1;68;;;;180;0;4.6;right;1;0.751535761;right;;;;;;;1;122;2019_Apr_01_1214;Flow_endo_pre;3.0.5;59.58706048
53;1;67;;;;0;90;4.6;right;1;0.972658844;right;;;;;;;1;122;2019_Apr_01_1214;Flow_endo_pre;3.0.5;59.58706048
54;1;67;;;;0;0;4.6;right;1;1.775407653;right;;;;;;;1;122;2019_Apr_01_1214;Flow_endo_pre;3.0.5;59.58706048
55;1;67;;;;180;0;4.6;right;1;0.839855893;right;;;;;;;1;122;2019_Apr_01_1214;Flow_endo_pre;3.0.5;59.58706048
56;1;66;;;;180;90;4.6;right;0;1.104108701;left;;;;;;;1;122;2019_Apr_01_1214;Flow_endo_pre;3.0.5;59.58706048
57;1;67;;;;180;90;-4.6;left;0;0.737950153;right;;;;;;;1;122;2019_Apr_01_1214;Flow_endo_pre;3.0.5;59.58706048
58;1;68;;;;180;90;4.6;right;1;0.84039673;right;;;;;;;1;122;2019_Apr_01_1214;Flow_endo_pre;3.0.5;59.58706048
59;1;68;;;;0;0;4.6;right;0;0.941568886;left;;;;;;;1;122;2019_Apr_01_1214;Flow_endo_pre;3.0.5;59.58706048
60;1;69;;;;0;90;-4.6;left;1;1.039114884;left;;;;;;;1;122;2019_Apr_01_1214;Flow_endo_pre;3.0.5;59.58706048
61;1;69;;;;0;0;4.6;right;1;0.738843257;right;;;;;;;1;122;2019_Apr_01_1214;Flow_endo_pre;3.0.5;59.58706048
62;1;69;;;;0;90;-4.6;left;1;1.022696481;left;;;;;;;1;122;2019_Apr_01_1214;Flow_endo_pre;3.0.5;59.58706048
;;;0;1;81;;0;4.6;right;;;;4.6;1;0.97057602;right;;;1;122;2019_Apr_01_1214;Flow_endo_pre;3.0.5;59.58706048
;;;1;1;80;;0;4.6;right;;;;-4.6;1;1.291734894;right;;;1;122;2019_Apr_01_1214;Flow_endo_pre;3.0.5;59.58706048
;;;2;1;79;;90;-4.6;left;;;;4.6;1;0.992346874;left;;;1;122;2019_Apr_01_1214;Flow_endo_pre;3.0.5;59.58706048
;;;3;1;78;;0;4.6;right;;;;-4.6;1;0.920743499;right;;;1;122;2019_Apr_01_1214;Flow_endo_pre;3.0.5;59.58706048
;;;4;1;77;;90;-4.6;left;;;;-4.6;1;0.95446754;left;;;1;122;2019_Apr_01_1214;Flow_endo_pre;3.0.5;59.58706048
;;;5;1;76;;90;4.6;right;;;;4.6;1;0.791103106;right;;;1;122;2019_Apr_01_1214;Flow_endo_pre;3.0.5;59.58706048
;;;6;1;75;;0;4.6;right;;;;4.6;1;0.804265267;right;;;1;122;2019_Apr_01_1214;Flow_endo_pre;3.0.5;59.58706048
;;;7;1;74;;90;-4.6;left;;;;4.6;1;0.787522067;left;;;1;122;2019_Apr_01_1214;Flow_endo_pre;3.0.5;59.58706048
;;;8;1;73;;0;-4.6;left;;;;-4.6;1;0.635224714;left;;;1;122;2019_Apr_01_1214;Flow_endo_pre;3.0.5;59.58706048
;;;9;1;72;;0;-4.6;left;;;;-4.6;1;0.584127268;left;;;1;122;2019_Apr_01_1214;Flow_endo_pre;3.0.5;59.58706048
;;;10;1;71;;90;4.6;right;;;;4.6;1;0.638088268;right;;;1;122;2019_Apr_01_1214;Flow_endo_pre;3.0.5;59.58706048
;;;11;1;70;;90;-4.6;left;;;;-4.6;1;0.701249663;left;;;1;122;2019_Apr_01_1214;Flow_endo_pre;3.0.5;59.58706048
;;;12;1;69;;90;-4.6;left;;;;-4.6;1;0.603797508;left;;;1;122;2019_Apr_01_1214;Flow_endo_pre;3.0.5;59.58706048
;;;13;1;68;;90;-4.6;left;;;;-4.6;1;0.519823099;left;;;1;122;2019_Apr_01_1214;Flow_endo_pre;3.0.5;59.58706048
;;;14;1;67;;90;-4.6;left;;;;-4.6;1;0.805668165;left;;;1;122;2019_Apr_01_1214;Flow_endo_pre;3.0.5;59.58706048
;;;15;1;66;;90;-4.6;left;;;;4.6;0;0.888070312;right;;;1;122;2019_Apr_01_1214;Flow_endo_pre;3.0.5;59.58706048
;;;16;1;67;;0;4.6;right;;;;4.6;1;0.940306552;right;;;1;122;2019_Apr_01_1214;Flow_endo_pre;3.0.5;59.58706048
;;;17;1;67;;0;4.6;right;;;;-4.6;0;0.771885931;left;;;1;122;2019_Apr_01_1214;Flow_endo_pre;3.0.5;59.58706048
;;;18;1;68;;90;-4.6;left;;;;-4.6;1;0.601693229;left;;;1;122;2019_Apr_01_1214;Flow_endo_pre;3.0.5;59.58706048
;;;19;1;68;;90;-4.6;left;;;;4.6;0;0.918231136;right;;;1;122;2019_Apr_01_1214;Flow_endo_pre;3.0.5;59.58706048
;;;20;1;69;;90;-4.6;left;;;;-4.6;1;0.725614978;left;;;1;122;2019_Apr_01_1214;Flow_endo_pre;3.0.5;59.58706048
;;;21;1;69;;90;4.6;right;;;;-4.6;1;1.174083473;right;;;1;122;2019_Apr_01_1214;Flow_endo_pre;3.0.5;59.58706048
;;;22;1;69;;90;4.6;right;;;;4.6;1;1.038734508;right;;;1;122;2019_Apr_01_1214;Flow_endo_pre;3.0.5;59.58706048
;;;23;1;68;;0;-4.6;left;;;;-4.6;1;1.21983857;left;;;1;122;2019_Apr_01_1214;Flow_endo_pre;3.0.5;59.58706048
;;;24;1;68;;90;4.6;right;;;;-4.6;0;2.563865652;left;;;1;122;2019_Apr_01_1214;Flow_endo_pre;3.0.5;59.58706048
;;;25;1;69;;0;4.6;right;;;;4.6;1;0.672808629;right;;;1;122;2019_Apr_01_1214;Flow_endo_pre;3.0.5;59.58706048
;;;26;1;69;;90;-4.6;left;;;;4.6;1;0.95410843;left;;;1;122;2019_Apr_01_1214;Flow_endo_pre;3.0.5;59.58706048
;;;27;1;69;;0;-4.6;left;;;;4.6;1;0.991504128;left;;;1;122;2019_Apr_01_1214;Flow_endo_pre;3.0.5;59.58706048
;;;28;1;68;;0;4.6;right;;;;4.6;1;0.971725317;right;;;1;122;2019_Apr_01_1214;Flow_endo_pre;3.0.5;59.58706048
;;;29;1;68;;90;-4.6;left;;;;4.6;0;1.405264291;right;;;1;122;2019_Apr_01_1214;Flow_endo_pre;3.0.5;59.58706048
;;;30;1;69;;90;4.6;right;;;;-4.6;1;1.154905312;right;;;1;122;2019_Apr_01_1214;Flow_endo_pre;3.0.5;59.58706048
;;;31;1;69;;90;4.6;right;;;;4.6;0;1.220057721;left;;;1;122;2019_Apr_01_1214;Flow_endo_pre;3.0.5;59.58706048
;;;32;1;70;;0;4.6;right;;;;4.6;1;0.905187796;right;;;1;122;2019_Apr_01_1214;Flow_endo_pre;3.0.5;59.58706048
;;;33;1;70;;90;-4.6;left;;;;4.6;1;0.935667954;left;;;1;122;2019_Apr_01_1214;Flow_endo_pre;3.0.5;59.58706048
;;;34;1;70;;0;4.6;right;;;;4.6;1;0.970568246;right;;;1;122;2019_Apr_01_1214;Flow_endo_pre;3.0.5;59.58706048
;;;35;1;69;;0;4.6;right;;;;-4.6;1;1.742068164;right;;;1;122;2019_Apr_01_1214;Flow_endo_pre;3.0.5;59.58706048
;;;36;1;69;;0;4.6;right;;;;4.6;1;0.988760632;right;;;1;122;2019_Apr_01_1214;Flow_endo_pre;3.0.5;59.58706048
;;;37;1;69;;0;4.6;right;;;;4.6;1;1.492605795;right;;;1;122;2019_Apr_01_1214;Flow_endo_pre;3.0.5;59.58706048
;;;38;1;68;;90;4.6;right;;;;4.6;0;2.026257004;left;;;1;122;2019_Apr_01_1214;Flow_endo_pre;3.0.5;59.58706048
;;;39;1;69;;0;-4.6;left;;;;4.6;0;1.625425162;right;;;1;122;2019_Apr_01_1214;Flow_endo_pre;3.0.5;59.58706048
;;;40;1;70;;90;4.6;right;;;;-4.6;1;1.240541558;right;;;1;122;2019_Apr_01_1214;Flow_endo_pre;3.0.5;59.58706048
;;;41;1;70;;90;4.6;right;;;;4.6;0;1.324037434;left;;;1;122;2019_Apr_01_1214;Flow_endo_pre;3.0.5;59.58706048
;;;42;1;71;;90;-4.6;left;;;;4.6;1;1.605705001;left;;;1;122;2019_Apr_01_1214;Flow_endo_pre;3.0.5;59.58706048
;;;43;1;71;;0;4.6;right;;;;4.6;1;1.923545508;right;;;1;122;2019_Apr_01_1214;Flow_endo_pre;3.0.5;59.58706048
;;;44;1;71;;0;4.6;right;;;;4.6;1;0.865727064;right;;;1;122;2019_Apr_01_1214;Flow_endo_pre;3.0.5;59.58706048
;;;45;1;70;;0;-4.6;left;;;;-4.6;1;1.038921701;left;;;1;122;2019_Apr_01_1214;Flow_endo_pre;3.0.5;59.58706048
;;;46;1;70;;90;4.6;right;;;;-4.6;1;1.425909991;right;;;1;122;2019_Apr_01_1214;Flow_endo_pre;3.0.5;59.58706048
;;;47;1;70;;0;4.6;right;;;;4.6;1;1.440262889;right;;;1;122;2019_Apr_01_1214;Flow_endo_pre;3.0.5;59.58706048
;;;48;1;69;;0;4.6;right;;;;-4.6;1;1.052834258;right;;;1;122;2019_Apr_01_1214;Flow_endo_pre;3.0.5;59.58706048
;;;49;1;69;;90;-4.6;left;;;;4.6;0;1.256267182;right;;;1;122;2019_Apr_01_1214;Flow_endo_pre;3.0.5;59.58706048
;;;50;1;70;;90;-4.6;left;;;;-4.6;1;1.424863115;left;;;1;122;2019_Apr_01_1214;Flow_endo_pre;3.0.5;59.58706048
;;;51;1;70;;90;-4.6;left;;;;4.6;0;2.626926622;right;;;1;122;2019_Apr_01_1214;Flow_endo_pre;3.0.5;59.58706048
;;;52;1;71;;90;4.6;right;;;;-4.6;1;1.989203219;right;;;1;122;2019_Apr_01_1214;Flow_endo_pre;3.0.5;59.58706048
;;;53;1;71;;90;-4.6;left;;;;4.6;1;1.120724517;left;;;1;122;2019_Apr_01_1214;Flow_endo_pre;3.0.5;59.58706048
;;;54;1;71;;90;-4.6;left;;;;-4.6;1;0.92405808;left;;;1;122;2019_Apr_01_1214;Flow_endo_pre;3.0.5;59.58706048
;;;55;1;70;;0;-4.6;left;;;;-4.6;1;0.904794894;left;;;1;122;2019_Apr_01_1214;Flow_endo_pre;3.0.5;59.58706048
;;;56;1;70;;90;-4.6;left;;;;4.6;1;2.44705261;left;;;1;122;2019_Apr_01_1214;Flow_endo_pre;3.0.5;59.58706048
;;;57;1;70;;90;4.6;right;;;;4.6;1;0.83713805;right;;;1;122;2019_Apr_01_1214;Flow_endo_pre;3.0.5;59.58706048
;;;58;1;69;;90;4.6;right;;;;4.6;1;1.340220345;right;;;1;122;2019_Apr_01_1214;Flow_endo_pre;3.0.5;59.58706048
;;;59;1;69;;90;-4.6;left;;;;4.6;1;1.286413566;left;;;1;122;2019_Apr_01_1214;Flow_endo_pre;3.0.5;59.58706048
;;;60;1;69;;90;4.6;right;;;;4.6;0;1.191365093;left;;;1;122;2019_Apr_01_1214;Flow_endo_pre;3.0.5;59.58706048
;;;61;1;70;;90;-4.6;left;;;;4.6;1;0.958458398;left;;;1;122;2019_Apr_01_1214;Flow_endo_pre;3.0.5;59.58706048
;;;62;1;70;;90;-4.6;left;;;;-4.6;1;2.12315174;left;;;1;122;2019_Apr_01_1214;Flow_endo_pre;3.0.5;59.58706048
;;;63;1;70;;90;-4.6;left;;;;4.6;1;1.256001291;left;;;1;122;2019_Apr_01_1214;Flow_endo_pre;3.0.5;59.58706048
;;;64;1;69;;90;-4.6;left;;;;-4.6;1;0.818356409;left;;;1;122;2019_Apr_01_1214;Flow_endo_pre;3.0.5;59.58706048
;;;65;1;69;;0;-4.6;left;;;;4.6;1;0.970502067;left;;;1;122;2019_Apr_01_1214;Flow_endo_pre;3.0.5;59.58706048
;;;66;1;69;;0;-4.6;left;;;;4.6;1;2.144025548;left;;;1;122;2019_Apr_01_1214;Flow_endo_pre;3.0.5;59.58706048
;;;67;1;68;;0;-4.6;left;;;;-4.6;1;1.286807726;left;;;1;122;2019_Apr_01_1214;Flow_endo_pre;3.0.5;59.58706048
;;;68;1;68;;0;4.6;right;;;;4.6;1;1.274494349;right;;;1;122;2019_Apr_01_1214;Flow_endo_pre;3.0.5;59.58706048
;;;69;1;68;;0;4.6;right;;;;4.6;1;1.358184482;right;;;1;122;2019_Apr_01_1214;Flow_endo_pre;3.0.5;59.58706048
;;;70;1;67;;0;4.6;right;;;;-4.6;0;0.858597668;left;;;1;122;2019_Apr_01_1214;Flow_endo_pre;3.0.5;59.58706048
;;;71;1;68;;90;-4.6;left;;;;4.6;1;1.408766253;left;;;1;122;2019_Apr_01_1214;Flow_endo_pre;3.0.5;59.58706048
;;;72;1;68;;90;4.6;right;;;;4.6;1;1.03983979;right;;;1;122;2019_Apr_01_1214;Flow_endo_pre;3.0.5;59.58706048
;;;73;1;68;;90;4.6;right;;;;-4.6;1;0.936794095;right;;;1;122;2019_Apr_01_1214;Flow_endo_pre;3.0.5;59.58706048
;;;;;;;;;;;;;;;;;Monday;16.407;1;122;2019_Apr_01_1214;Flow_endo_pre;3.0.5;59.58706048
