Questions,Stair.thisTrialN,Stair.stepSize,Stair.intensity,Stair2.thisTrialN,Stair2.stepSize,Stair2.intensity,controlQ.thisRepN,controlQ.thisTrialN,controlQ.thisN,controlQ.thisIndex,Qs.thisRepN,Qs.thisTrialN,Qs.thisN,Qs.thisIndex,cueOri,targetXOri,targetXPos,CorrectAns,Stair.response,keyPress.rt,keyPress.rl,cueExoPos,Stair2.response,keyPress_2.rt,keyPress_2.rl,key_start.keys,key_start.rt,Quest_Ans.response,Quest_Ans.rt,Session,Participant,date,expName,psychopyVersion,frameRate,
,0,1,81,,,,,,,,,,,,180,0,-4.6,left,1,0.486866387,left,,,,,,,,,1,3,2019_Mar_26_1914,Flow_endo_post,3.0.5,59.80647092,
,1,1,80,,,,,,,,,,,,0,90,-4.6,left,1,0.520799224,left,,,,,,,,,1,3,2019_Mar_26_1914,Flow_endo_post,3.0.5,59.80647092,
,2,1,79,,,,,,,,,,,,0,0,-4.6,left,1,0.538141673,left,,,,,,,,,1,3,2019_Mar_26_1914,Flow_endo_post,3.0.5,59.80647092,
,3,1,78,,,,,,,,,,,,180,0,-4.6,left,1,0.622063164,left,,,,,,,,,1,3,2019_Mar_26_1914,Flow_endo_post,3.0.5,59.80647092,
,4,1,77,,,,,,,,,,,,0,90,4.6,right,1,0.520613493,right,,,,,,,,,1,3,2019_Mar_26_1914,Flow_endo_post,3.0.5,59.80647092,
,5,1,76,,,,,,,,,,,,180,0,-4.6,left,1,0.538404123,left,,,,,,,,,1,3,2019_Mar_26_1914,Flow_endo_post,3.0.5,59.80647092,
,6,1,75,,,,,,,,,,,,0,0,4.6,right,1,0.739493523,right,,,,,,,,,1,3,2019_Mar_26_1914,Flow_endo_post,3.0.5,59.80647092,
,7,1,74,,,,,,,,,,,,0,90,-4.6,left,1,0.741474695,left,,,,,,,,,1,3,2019_Mar_26_1914,Flow_endo_post,3.0.5,59.80647092,
,8,1,73,,,,,,,,,,,,0,0,4.6,right,1,0.657190059,right,,,,,,,,,1,3,2019_Mar_26_1914,Flow_endo_post,3.0.5,59.80647092,
,9,1,72,,,,,,,,,,,,0,90,-4.6,left,1,0.655594154,left,,,,,,,,,1,3,2019_Mar_26_1914,Flow_endo_post,3.0.5,59.80647092,
,10,1,71,,,,,,,,,,,,180,0,-4.6,left,1,0.707200064,left,,,,,,,,,1,3,2019_Mar_26_1914,Flow_endo_post,3.0.5,59.80647092,
,11,1,70,,,,,,,,,,,,0,90,-4.6,left,1,0.705312243,left,,,,,,,,,1,3,2019_Mar_26_1914,Flow_endo_post,3.0.5,59.80647092,
,12,1,69,,,,,,,,,,,,180,90,-4.6,left,1,0.703820095,left,,,,,,,,,1,3,2019_Mar_26_1914,Flow_endo_post,3.0.5,59.80647092,
,13,1,68,,,,,,,,,,,,0,0,-4.6,left,1,1.591361431,left,,,,,,,,,1,3,2019_Mar_26_1914,Flow_endo_post,3.0.5,59.80647092,
,14,1,67,,,,,,,,,,,,180,90,-4.6,left,1,0.992312369,left,,,,,,,,,1,3,2019_Mar_26_1914,Flow_endo_post,3.0.5,59.80647092,
,15,1,66,,,,,,,,,,,,180,90,-4.6,left,1,1.67675859,left,,,,,,,,,1,3,2019_Mar_26_1914,Flow_endo_post,3.0.5,59.80647092,
,16,1,65,,,,,,,,,,,,0,90,-4.6,left,0,1.208822645,right,,,,,,,,,1,3,2019_Mar_26_1914,Flow_endo_post,3.0.5,59.80647092,
,17,1,66,,,,,,,,,,,,0,90,-4.6,left,0,2.289317096,right,,,,,,,,,1,3,2019_Mar_26_1914,Flow_endo_post,3.0.5,59.80647092,
,18,1,67,,,,,,,,,,,,180,0,4.6,right,1,0.938323381,right,,,,,,,,,1,3,2019_Mar_26_1914,Flow_endo_post,3.0.5,59.80647092,
,19,1,67,,,,,,,,,,,,180,0,-4.6,left,1,0.768479193,left,,,,,,,,,1,3,2019_Mar_26_1914,Flow_endo_post,3.0.5,59.80647092,
,20,1,67,,,,,,,,,,,,180,90,4.6,right,1,1.235877801,right,,,,,,,,,1,3,2019_Mar_26_1914,Flow_endo_post,3.0.5,59.80647092,
,21,1,66,,,,,,,,,,,,0,90,-4.6,left,1,1.757700969,left,,,,,,,,,1,3,2019_Mar_26_1914,Flow_endo_post,3.0.5,59.80647092,
,22,1,66,,,,,,,,,,,,0,0,4.6,right,1,0.770890503,right,,,,,,,,,1,3,2019_Mar_26_1914,Flow_endo_post,3.0.5,59.80647092,
,23,1,66,,,,,,,,,,,,180,90,4.6,right,1,1.087634978,right,,,,,,,,,1,3,2019_Mar_26_1914,Flow_endo_post,3.0.5,59.80647092,
,24,1,65,,,,,,,,,,,,180,90,4.6,right,1,1.050879587,right,,,,,,,,,1,3,2019_Mar_26_1914,Flow_endo_post,3.0.5,59.80647092,
,25,1,65,,,,,,,,,,,,180,90,-4.6,left,0,1.355999092,right,,,,,,,,,1,3,2019_Mar_26_1914,Flow_endo_post,3.0.5,59.80647092,
,26,1,66,,,,,,,,,,,,0,90,-4.6,left,0,0.938927537,right,,,,,,,,,1,3,2019_Mar_26_1914,Flow_endo_post,3.0.5,59.80647092,
,27,1,67,,,,,,,,,,,,180,90,-4.6,left,1,1.206112104,left,,,,,,,,,1,3,2019_Mar_26_1914,Flow_endo_post,3.0.5,59.80647092,
,28,1,67,,,,,,,,,,,,0,0,4.6,right,1,0.755412285,right,,,,,,,,,1,3,2019_Mar_26_1914,Flow_endo_post,3.0.5,59.80647092,
,29,1,67,,,,,,,,,,,,0,0,-4.6,left,1,1.439630718,left,,,,,,,,,1,3,2019_Mar_26_1914,Flow_endo_post,3.0.5,59.80647092,
,30,1,66,,,,,,,,,,,,180,90,-4.6,left,1,1.004641221,left,,,,,,,,,1,3,2019_Mar_26_1914,Flow_endo_post,3.0.5,59.80647092,
,31,1,66,,,,,,,,,,,,180,0,-4.6,left,1,1.753311439,left,,,,,,,,,1,3,2019_Mar_26_1914,Flow_endo_post,3.0.5,59.80647092,
,32,1,66,,,,,,,,,,,,0,0,4.6,right,1,0.754389448,right,,,,,,,,,1,3,2019_Mar_26_1914,Flow_endo_post,3.0.5,59.80647092,
,33,1,65,,,,,,,,,,,,0,90,4.6,right,1,0.872579034,right,,,,,,,,,1,3,2019_Mar_26_1914,Flow_endo_post,3.0.5,59.80647092,
,34,1,65,,,,,,,,,,,,180,0,-4.6,left,1,0.791115351,left,,,,,,,,,1,3,2019_Mar_26_1914,Flow_endo_post,3.0.5,59.80647092,
,35,1,65,,,,,,,,,,,,180,0,4.6,right,0,0.808608651,left,,,,,,,,,1,3,2019_Mar_26_1914,Flow_endo_post,3.0.5,59.80647092,
,36,1,66,,,,,,,,,,,,0,0,4.6,right,1,0.819441114,right,,,,,,,,,1,3,2019_Mar_26_1914,Flow_endo_post,3.0.5,59.80647092,
,37,1,66,,,,,,,,,,,,180,90,4.6,right,1,1.452922277,right,,,,,,,,,1,3,2019_Mar_26_1914,Flow_endo_post,3.0.5,59.80647092,
,38,1,66,,,,,,,,,,,,0,90,-4.6,left,0,0.986273974,right,,,,,,,,,1,3,2019_Mar_26_1914,Flow_endo_post,3.0.5,59.80647092,
,39,1,67,,,,,,,,,,,,0,90,4.6,right,1,1.123182614,right,,,,,,,,,1,3,2019_Mar_26_1914,Flow_endo_post,3.0.5,59.80647092,
,40,1,67,,,,,,,,,,,,180,90,4.6,right,0,1.105794468,left,,,,,,,,,1,3,2019_Mar_26_1914,Flow_endo_post,3.0.5,59.80647092,
,41,1,68,,,,,,,,,,,,0,90,-4.6,left,1,1.021933226,left,,,,,,,,,1,3,2019_Mar_26_1914,Flow_endo_post,3.0.5,59.80647092,
,42,1,68,,,,,,,,,,,,0,0,4.6,right,0,1.104694029,left,,,,,,,,,1,3,2019_Mar_26_1914,Flow_endo_post,3.0.5,59.80647092,
,43,1,69,,,,,,,,,,,,180,0,-4.6,left,1,0.890175991,left,,,,,,,,,1,3,2019_Mar_26_1914,Flow_endo_post,3.0.5,59.80647092,
,44,1,69,,,,,,,,,,,,0,0,-4.6,left,1,0.8365969,left,,,,,,,,,1,3,2019_Mar_26_1914,Flow_endo_post,3.0.5,59.80647092,
,45,1,69,,,,,,,,,,,,180,90,-4.6,left,1,0.789656137,left,,,,,,,,,1,3,2019_Mar_26_1914,Flow_endo_post,3.0.5,59.80647092,
,46,1,68,,,,,,,,,,,,0,90,-4.6,left,1,0.939384471,left,,,,,,,,,1,3,2019_Mar_26_1914,Flow_endo_post,3.0.5,59.80647092,
,47,1,68,,,,,,,,,,,,180,0,4.6,right,1,1.00430557,right,,,,,,,,,1,3,2019_Mar_26_1914,Flow_endo_post,3.0.5,59.80647092,
,48,1,68,,,,,,,,,,,,0,90,4.6,right,1,0.938341028,right,,,,,,,,,1,3,2019_Mar_26_1914,Flow_endo_post,3.0.5,59.80647092,
,49,1,67,,,,,,,,,,,,0,90,4.6,right,1,0.706503584,right,,,,,,,,,1,3,2019_Mar_26_1914,Flow_endo_post,3.0.5,59.80647092,
,50,1,67,,,,,,,,,,,,0,90,-4.6,left,0,1.338973986,right,,,,,,,,,1,3,2019_Mar_26_1914,Flow_endo_post,3.0.5,59.80647092,
,51,1,68,,,,,,,,,,,,0,90,-4.6,left,1,0.885792984,left,,,,,,,,,1,3,2019_Mar_26_1914,Flow_endo_post,3.0.5,59.80647092,
,52,1,68,,,,,,,,,,,,180,90,-4.6,left,1,0.836210085,left,,,,,,,,,1,3,2019_Mar_26_1914,Flow_endo_post,3.0.5,59.80647092,
,53,1,68,,,,,,,,,,,,180,0,-4.6,left,1,0.773550746,left,,,,,,,,,1,3,2019_Mar_26_1914,Flow_endo_post,3.0.5,59.80647092,
,54,1,67,,,,,,,,,,,,180,0,-4.6,left,1,0.856883699,left,,,,,,,,,1,3,2019_Mar_26_1914,Flow_endo_post,3.0.5,59.80647092,
,55,1,67,,,,,,,,,,,,0,90,-4.6,left,0,0.941726601,right,,,,,,,,,1,3,2019_Mar_26_1914,Flow_endo_post,3.0.5,59.80647092,
,56,1,68,,,,,,,,,,,,180,90,4.6,right,1,1.17083072,right,,,,,,,,,1,3,2019_Mar_26_1914,Flow_endo_post,3.0.5,59.80647092,
,57,1,68,,,,,,,,,,,,0,0,4.6,right,1,1.121825004,right,,,,,,,,,1,3,2019_Mar_26_1914,Flow_endo_post,3.0.5,59.80647092,
,58,1,68,,,,,,,,,,,,180,90,4.6,right,1,0.735580159,right,,,,,,,,,1,3,2019_Mar_26_1914,Flow_endo_post,3.0.5,59.80647092,
,59,1,67,,,,,,,,,,,,180,0,-4.6,left,1,0.837851943,left,,,,,,,,,1,3,2019_Mar_26_1914,Flow_endo_post,3.0.5,59.80647092,
,60,1,67,,,,,,,,,,,,0,90,-4.6,left,0,2.342457634,right,,,,,,,,,1,3,2019_Mar_26_1914,Flow_endo_post,3.0.5,59.80647092,
,61,1,68,,,,,,,,,,,,180,0,4.6,right,1,0.838267408,right,,,,,,,,,1,3,2019_Mar_26_1914,Flow_endo_post,3.0.5,59.80647092,
,62,1,68,,,,,,,,,,,,180,0,-4.6,left,1,0.837150488,left,,,,,,,,,1,3,2019_Mar_26_1914,Flow_endo_post,3.0.5,59.80647092,
,63,1,68,,,,,,,,,,,,0,0,-4.6,left,0,1.591492966,right,,,,,,,,,1,3,2019_Mar_26_1914,Flow_endo_post,3.0.5,59.80647092,
,64,1,69,,,,,,,,,,,,180,0,-4.6,left,1,0.807094475,left,,,,,,,,,1,3,2019_Mar_26_1914,Flow_endo_post,3.0.5,59.80647092,
,65,1,69,,,,,,,,,,,,0,90,-4.6,left,1,1.074834202,left,,,,,,,,,1,3,2019_Mar_26_1914,Flow_endo_post,3.0.5,59.80647092,
,66,1,69,,,,,,,,,,,,0,90,-4.6,left,1,1.022985317,left,,,,,,,,,1,3,2019_Mar_26_1914,Flow_endo_post,3.0.5,59.80647092,
,67,1,68,,,,,,,,,,,,0,0,-4.6,left,0,1.391621748,right,,,,,,,,,1,3,2019_Mar_26_1914,Flow_endo_post,3.0.5,59.80647092,
,68,1,69,,,,,,,,,,,,0,0,-4.6,left,1,0.753411641,left,,,,,,,,,1,3,2019_Mar_26_1914,Flow_endo_post,3.0.5,59.80647092,
,69,1,69,,,,,,,,,,,,180,90,4.6,right,1,0.835292314,right,,,,,,,,,1,3,2019_Mar_26_1914,Flow_endo_post,3.0.5,59.80647092,
,70,1,69,,,,,,,,,,,,0,0,-4.6,left,0,1.587016819,right,,,,,,,,,1,3,2019_Mar_26_1914,Flow_endo_post,3.0.5,59.80647092,
,71,1,70,,,,,,,,,,,,180,0,4.6,right,1,2.227906355,right,,,,,,,,,1,3,2019_Mar_26_1914,Flow_endo_post,3.0.5,59.80647092,
,72,1,70,,,,,,,,,,,,180,0,-4.6,left,1,0.717860348,left,,,,,,,,,1,3,2019_Mar_26_1914,Flow_endo_post,3.0.5,59.80647092,
,73,1,70,,,,,,,,,,,,180,0,-4.6,left,1,0.770299204,left,,,,,,,,,1,3,2019_Mar_26_1914,Flow_endo_post,3.0.5,59.80647092,
,,,,0,1,81,,,,,,,,,,90,-4.6,left,,,,4.6,1,1.022074414,left,,,,,1,3,2019_Mar_26_1914,Flow_endo_post,3.0.5,59.80647092,
,,,,1,1,80,,,,,,,,,,90,-4.6,left,,,,-4.6,1,0.850801072,left,,,,,1,3,2019_Mar_26_1914,Flow_endo_post,3.0.5,59.80647092,
,,,,2,1,79,,,,,,,,,,90,-4.6,left,,,,-4.6,1,0.826316582,left,,,,,1,3,2019_Mar_26_1914,Flow_endo_post,3.0.5,59.80647092,
,,,,3,1,78,,,,,,,,,,0,-4.6,left,,,,-4.6,1,0.75231967,left,,,,,1,3,2019_Mar_26_1914,Flow_endo_post,3.0.5,59.80647092,
,,,,4,1,77,,,,,,,,,,0,-4.6,left,,,,4.6,1,1.109277247,left,,,,,1,3,2019_Mar_26_1914,Flow_endo_post,3.0.5,59.80647092,
,,,,5,1,76,,,,,,,,,,0,-4.6,left,,,,4.6,1,0.854387209,left,,,,,1,3,2019_Mar_26_1914,Flow_endo_post,3.0.5,59.80647092,
,,,,6,1,75,,,,,,,,,,90,4.6,right,,,,4.6,1,0.837851851,right,,,,,1,3,2019_Mar_26_1914,Flow_endo_post,3.0.5,59.80647092,
,,,,7,1,74,,,,,,,,,,90,-4.6,left,,,,4.6,1,0.871166013,left,,,,,1,3,2019_Mar_26_1914,Flow_endo_post,3.0.5,59.80647092,
,,,,8,1,73,,,,,,,,,,0,-4.6,left,,,,4.6,1,0.874863719,left,,,,,1,3,2019_Mar_26_1914,Flow_endo_post,3.0.5,59.80647092,
,,,,9,1,72,,,,,,,,,,90,4.6,right,,,,4.6,1,0.824002222,right,,,,,1,3,2019_Mar_26_1914,Flow_endo_post,3.0.5,59.80647092,
,,,,10,1,71,,,,,,,,,,90,-4.6,left,,,,-4.6,1,0.824002973,left,,,,,1,3,2019_Mar_26_1914,Flow_endo_post,3.0.5,59.80647092,
,,,,11,1,70,,,,,,,,,,0,4.6,right,,,,4.6,1,0.685090024,right,,,,,1,3,2019_Mar_26_1914,Flow_endo_post,3.0.5,59.80647092,
,,,,12,1,69,,,,,,,,,,0,-4.6,left,,,,4.6,1,0.986673417,left,,,,,1,3,2019_Mar_26_1914,Flow_endo_post,3.0.5,59.80647092,
,,,,13,1,68,,,,,,,,,,0,4.6,right,,,,-4.6,1,1.002095493,right,,,,,1,3,2019_Mar_26_1914,Flow_endo_post,3.0.5,59.80647092,
,,,,14,1,67,,,,,,,,,,90,-4.6,left,,,,4.6,0,1.142018089,right,,,,,1,3,2019_Mar_26_1914,Flow_endo_post,3.0.5,59.80647092,
,,,,15,1,68,,,,,,,,,,0,4.6,right,,,,-4.6,1,0.902619719,right,,,,,1,3,2019_Mar_26_1914,Flow_endo_post,3.0.5,59.80647092,
,,,,16,1,68,,,,,,,,,,0,-4.6,left,,,,4.6,1,0.873845546,left,,,,,1,3,2019_Mar_26_1914,Flow_endo_post,3.0.5,59.80647092,
,,,,17,1,68,,,,,,,,,,90,-4.6,left,,,,-4.6,1,1.155353406,left,,,,,1,3,2019_Mar_26_1914,Flow_endo_post,3.0.5,59.80647092,
,,,,18,1,67,,,,,,,,,,0,-4.6,left,,,,-4.6,1,0.873636775,left,,,,,1,3,2019_Mar_26_1914,Flow_endo_post,3.0.5,59.80647092,
,,,,19,1,67,,,,,,,,,,0,-4.6,left,,,,-4.6,1,2.043686916,left,,,,,1,3,2019_Mar_26_1914,Flow_endo_post,3.0.5,59.80647092,
,,,,20,1,67,,,,,,,,,,0,-4.6,left,,,,-4.6,0,1.101795371,right,,,,,1,3,2019_Mar_26_1914,Flow_endo_post,3.0.5,59.80647092,
,,,,21,1,68,,,,,,,,,,90,-4.6,left,,,,4.6,0,1.172315165,right,,,,,1,3,2019_Mar_26_1914,Flow_endo_post,3.0.5,59.80647092,
,,,,22,1,69,,,,,,,,,,90,4.6,right,,,,-4.6,1,0.856191958,right,,,,,1,3,2019_Mar_26_1914,Flow_endo_post,3.0.5,59.80647092,
,,,,23,1,69,,,,,,,,,,0,-4.6,left,,,,4.6,1,0.968560036,left,,,,,1,3,2019_Mar_26_1914,Flow_endo_post,3.0.5,59.80647092,
,,,,24,1,69,,,,,,,,,,90,4.6,right,,,,-4.6,1,1.595488031,right,,,,,1,3,2019_Mar_26_1914,Flow_endo_post,3.0.5,59.80647092,
,,,,25,1,68,,,,,,,,,,90,4.6,right,,,,4.6,0,1.524322273,left,,,,,1,3,2019_Mar_26_1914,Flow_endo_post,3.0.5,59.80647092,
,,,,26,1,69,,,,,,,,,,0,-4.6,left,,,,-4.6,1,0.854716615,left,,,,,1,3,2019_Mar_26_1914,Flow_endo_post,3.0.5,59.80647092,
,,,,27,1,69,,,,,,,,,,90,4.6,right,,,,4.6,1,0.769691793,right,,,,,1,3,2019_Mar_26_1914,Flow_endo_post,3.0.5,59.80647092,
,,,,28,1,69,,,,,,,,,,90,4.6,right,,,,4.6,1,0.741108469,right,,,,,1,3,2019_Mar_26_1914,Flow_endo_post,3.0.5,59.80647092,
,,,,29,1,68,,,,,,,,,,0,4.6,right,,,,-4.6,1,1.372246034,right,,,,,1,3,2019_Mar_26_1914,Flow_endo_post,3.0.5,59.80647092,
,,,,30,1,68,,,,,,,,,,90,4.6,right,,,,-4.6,0,2.073532281,left,,,,,1,3,2019_Mar_26_1914,Flow_endo_post,3.0.5,59.80647092,
,,,,31,1,69,,,,,,,,,,0,-4.6,left,,,,-4.6,0,1.290699551,right,,,,,1,3,2019_Mar_26_1914,Flow_endo_post,3.0.5,59.80647092,
,,,,32,1,70,,,,,,,,,,90,4.6,right,,,,4.6,0,1.270580352,left,,,,,1,3,2019_Mar_26_1914,Flow_endo_post,3.0.5,59.80647092,
,,,,33,1,71,,,,,,,,,,0,4.6,right,,,,4.6,1,1.710085653,right,,,,,1,3,2019_Mar_26_1914,Flow_endo_post,3.0.5,59.80647092,
,,,,34,1,71,,,,,,,,,,90,-4.6,left,,,,4.6,1,0.852867711,left,,,,,1,3,2019_Mar_26_1914,Flow_endo_post,3.0.5,59.80647092,
,,,,35,1,71,,,,,,,,,,0,-4.6,left,,,,-4.6,1,0.770027305,left,,,,,1,3,2019_Mar_26_1914,Flow_endo_post,3.0.5,59.80647092,
,,,,36,1,70,,,,,,,,,,0,4.6,right,,,,4.6,1,0.705729632,right,,,,,1,3,2019_Mar_26_1914,Flow_endo_post,3.0.5,59.80647092,
,,,,37,1,70,,,,,,,,,,0,-4.6,left,,,,4.6,1,0.805943814,left,,,,,1,3,2019_Mar_26_1914,Flow_endo_post,3.0.5,59.80647092,
,,,,38,1,70,,,,,,,,,,0,-4.6,left,,,,4.6,0,0.939126646,right,,,,,1,3,2019_Mar_26_1914,Flow_endo_post,3.0.5,59.80647092,
,,,,39,1,71,,,,,,,,,,90,4.6,right,,,,-4.6,1,0.993073848,right,,,,,1,3,2019_Mar_26_1914,Flow_endo_post,3.0.5,59.80647092,
,,,,40,1,71,,,,,,,,,,0,4.6,right,,,,-4.6,1,0.76997575,right,,,,,1,3,2019_Mar_26_1914,Flow_endo_post,3.0.5,59.80647092,
,,,,41,1,71,,,,,,,,,,0,4.6,right,,,,-4.6,1,1.158388902,right,,,,,1,3,2019_Mar_26_1914,Flow_endo_post,3.0.5,59.80647092,
,,,,42,1,70,,,,,,,,,,0,-4.6,left,,,,4.6,1,0.902348706,left,,,,,1,3,2019_Mar_26_1914,Flow_endo_post,3.0.5,59.80647092,
,,,,43,1,70,,,,,,,,,,90,4.6,right,,,,-4.6,1,0.788939726,right,,,,,1,3,2019_Mar_26_1914,Flow_endo_post,3.0.5,59.80647092,
,,,,44,1,70,,,,,,,,,,90,4.6,right,,,,4.6,1,1.470434552,right,,,,,1,3,2019_Mar_26_1914,Flow_endo_post,3.0.5,59.80647092,
,,,,45,1,69,,,,,,,,,,0,4.6,right,,,,-4.6,1,0.836643646,right,,,,,1,3,2019_Mar_26_1914,Flow_endo_post,3.0.5,59.80647092,
,,,,46,1,69,,,,,,,,,,90,4.6,right,,,,4.6,1,2.945473476,right,,,,,1,3,2019_Mar_26_1914,Flow_endo_post,3.0.5,59.80647092,
,,,,47,1,69,,,,,,,,,,90,-4.6,left,,,,-4.6,0,1.223526846,right,,,,,1,3,2019_Mar_26_1914,Flow_endo_post,3.0.5,59.80647092,
,,,,48,1,70,,,,,,,,,,0,4.6,right,,,,4.6,1,0.772100047,right,,,,,1,3,2019_Mar_26_1914,Flow_endo_post,3.0.5,59.80647092,
,,,,49,1,70,,,,,,,,,,0,4.6,right,,,,-4.6,1,0.68874424,right,,,,,1,3,2019_Mar_26_1914,Flow_endo_post,3.0.5,59.80647092,
,,,,50,1,70,,,,,,,,,,90,-4.6,left,,,,4.6,1,1.057403928,left,,,,,1,3,2019_Mar_26_1914,Flow_endo_post,3.0.5,59.80647092,
,,,,51,1,69,,,,,,,,,,90,4.6,right,,,,-4.6,1,1.173517794,right,,,,,1,3,2019_Mar_26_1914,Flow_endo_post,3.0.5,59.80647092,
,,,,52,1,69,,,,,,,,,,0,-4.6,left,,,,4.6,1,1.219216586,left,,,,,1,3,2019_Mar_26_1914,Flow_endo_post,3.0.5,59.80647092,
,,,,53,1,69,,,,,,,,,,90,-4.6,left,,,,4.6,1,0.855957808,left,,,,,1,3,2019_Mar_26_1914,Flow_endo_post,3.0.5,59.80647092,
,,,,54,1,68,,,,,,,,,,0,-4.6,left,,,,-4.6,1,1.039841749,left,,,,,1,3,2019_Mar_26_1914,Flow_endo_post,3.0.5,59.80647092,
,,,,55,1,68,,,,,,,,,,0,4.6,right,,,,-4.6,1,0.770905138,right,,,,,1,3,2019_Mar_26_1914,Flow_endo_post,3.0.5,59.80647092,
,,,,56,1,68,,,,,,,,,,90,4.6,right,,,,-4.6,1,1.104874756,right,,,,,1,3,2019_Mar_26_1914,Flow_endo_post,3.0.5,59.80647092,
,,,,57,1,67,,,,,,,,,,90,4.6,right,,,,-4.6,1,1.058985549,right,,,,,1,3,2019_Mar_26_1914,Flow_endo_post,3.0.5,59.80647092,
,,,,58,1,67,,,,,,,,,,0,-4.6,left,,,,-4.6,0,1.086582703,right,,,,,1,3,2019_Mar_26_1914,Flow_endo_post,3.0.5,59.80647092,
,,,,59,1,68,,,,,,,,,,90,-4.6,left,,,,-4.6,0,1.510422694,right,,,,,1,3,2019_Mar_26_1914,Flow_endo_post,3.0.5,59.80647092,
,,,,60,1,69,,,,,,,,,,0,4.6,right,,,,-4.6,1,0.903694783,right,,,,,1,3,2019_Mar_26_1914,Flow_endo_post,3.0.5,59.80647092,
,,,,61,1,69,,,,,,,,,,0,4.6,right,,,,-4.6,1,0.706043955,right,,,,,1,3,2019_Mar_26_1914,Flow_endo_post,3.0.5,59.80647092,
,,,,62,1,69,,,,,,,,,,90,-4.6,left,,,,4.6,1,1.022048099,left,,,,,1,3,2019_Mar_26_1914,Flow_endo_post,3.0.5,59.80647092,
,,,,,,,,,,,,,,,,,,,,,,,,,,space,17.05491187,,,1,3,2019_Mar_26_1914,Flow_endo_post,3.0.5,59.80647092,
My state (body feelings, emotions and thoughts) during the task on the computer was similar to the state I had during my sport performance.,,,,,,,0,0,0,0,,,,,,,,,,,,,,,,,,2,14.153,1,3,2019_Mar_26_1914,Flow_endo_post,3.0.5,59.80647092
I felt just the right amount of challenge. ,,,,,,,,,,,0,0,0,11,,,,,,,,,,,,,,4,9.426,1,3,2019_Mar_26_1914,Flow_endo_post,3.0.5,59.80647092,
I was not concerned with how others might be evaluating me.,,,,,,,,,,,0,1,1,14,,,,,,,,,,,,,,4,8.851,1,3,2019_Mar_26_1914,Flow_endo_post,3.0.5,59.80647092,
The way time passed seemed to be different from normal.,,,,,,,,,,,0,2,2,24,,,,,,,,,,,,,,3,10.557,1,3,2019_Mar_26_1914,Flow_endo_post,3.0.5,59.80647092,
I felt as though I had everything under control.,,,,,,,,,,,0,3,3,12,,,,,,,,,,,,,,4,4.285,1,3,2019_Mar_26_1914,Flow_endo_post,3.0.5,59.80647092,
I had a good idea while I was performing about how well I was doing.,,,,,,,,,,,0,4,4,8,,,,,,,,,,,,,,4,4.821,1,3,2019_Mar_26_1914,Flow_endo_post,3.0.5,59.80647092,
I was challenged, but I believe my skills will allow me to meet that challenge.,,,,,,,,,,,0,5,5,9,,,,,,,,,,,,,,4,5.434,1,3,2019_Mar_26_1914,Flow_endo_post,3.0.5,59.80647092
I had no difficulty concentrating.,,,,,,,,,,,0,6,6,6,,,,,,,,,,,,,,3,8.281,1,3,2019_Mar_26_1914,Flow_endo_post,3.0.5,59.80647092,
The challenge and my skills were at an equally high level.,,,,,,,,,,,0,7,7,10,,,,,,,,,,,,,,5,11.689,1,3,2019_Mar_26_1914,Flow_endo_post,3.0.5,59.80647092,
I really enjoyed the experience.,,,,,,,,,,,0,8,8,17,,,,,,,,,,,,,,5,3.002,1,3,2019_Mar_26_1914,Flow_endo_post,3.0.5,59.80647092,
It was no effort to keep my mind on what was happening.,,,,,,,,,,,0,9,9,4,,,,,,,,,,,,,,4,6.872,1,3,2019_Mar_26_1914,Flow_endo_post,3.0.5,59.80647092,
Time seemed to alter (either slows down or speeds up).,,,,,,,,,,,0,10,10,23,,,,,,,,,,,,,,4,7.344,1,3,2019_Mar_26_1914,Flow_endo_post,3.0.5,59.80647092,
I had a strong sense of what I wanted to accomplish.,,,,,,,,,,,0,11,11,0,,,,,,,,,,,,,,4,3.597,1,3,2019_Mar_26_1914,Flow_endo_post,3.0.5,59.80647092,
I lost my normal awareness of time.,,,,,,,,,,,0,12,12,20,,,,,,,,,,,,,,3,7.795,1,3,2019_Mar_26_1914,Flow_endo_post,3.0.5,59.80647092,
The experience left me feeling great.,,,,,,,,,,,0,13,13,18,,,,,,,,,,,,,,4,3.014,1,3,2019_Mar_26_1914,Flow_endo_post,3.0.5,59.80647092,
My attention was focused entirely on what I was doing.,,,,,,,,,,,0,14,14,3,,,,,,,,,,,,,,3,3.194,1,3,2019_Mar_26_1914,Flow_endo_post,3.0.5,59.80647092,
The experience was extremely rewarding.,,,,,,,,,,,0,15,15,19,,,,,,,,,,,,,,4,5.273,1,3,2019_Mar_26_1914,Flow_endo_post,3.0.5,59.80647092,
I was not worried about what others might be thinking of me.,,,,,,,,,,,0,16,16,16,,,,,,,,,,,,,,4,4.468,1,3,2019_Mar_26_1914,Flow_endo_post,3.0.5,59.80647092,
My goals were clearly defined. ,,,,,,,,,,,0,17,17,2,,,,,,,,,,,,,,2,4.688,1,3,2019_Mar_26_1914,Flow_endo_post,3.0.5,59.80647092,
I did things spontaneously without having to think.,,,,,,,,,,,0,18,18,22,,,,,,,,,,,,,,2,8.028,1,3,2019_Mar_26_1914,Flow_endo_post,3.0.5,59.80647092,
I performed automatically without having to think about it.,,,,,,,,,,,0,19,19,25,,,,,,,,,,,,,,2,3.164,1,3,2019_Mar_26_1914,Flow_endo_post,3.0.5,59.80647092,
I was not concerned with how I was presenting myself.,,,,,,,,,,,0,20,20,15,,,,,,,,,,,,,,3,4.9,1,3,2019_Mar_26_1914,Flow_endo_post,3.0.5,59.80647092,
Sometimes time seemed to speeds up.,,,,,,,,,,,0,21,21,21,,,,,,,,,,,,,,3,2.963,1,3,2019_Mar_26_1914,Flow_endo_post,3.0.5,59.80647092,
It was really clear to me how my performance was going.,,,,,,,,,,,0,22,22,7,,,,,,,,,,,,,,4,4.449,1,3,2019_Mar_26_1914,Flow_endo_post,3.0.5,59.80647092,
I knew what I want to achieve.,,,,,,,,,,,0,23,23,1,,,,,,,,,,,,,,4,3.403,1,3,2019_Mar_26_1914,Flow_endo_post,3.0.5,59.80647092,
I felt that I had everything under control.,,,,,,,,,,,0,24,24,13,,,,,,,,,,,,,,4,2.36,1,3,2019_Mar_26_1914,Flow_endo_post,3.0.5,59.80647092,
I had total concentration.,,,,,,,,,,,0,25,25,5,,,,,,,,,,,,,,3,2.251,1,3,2019_Mar_26_1914,Flow_endo_post,3.0.5,59.80647092,
