Questions,Stair.thisTrialN,Stair.stepSize,Stair.intensity,Stair2.thisTrialN,Stair2.stepSize,Stair2.intensity,controlQ.thisRepN,controlQ.thisTrialN,controlQ.thisN,controlQ.thisIndex,Qs.thisRepN,Qs.thisTrialN,Qs.thisN,Qs.thisIndex,cueOri,targetXOri,targetXPos,CorrectAns,Stair.response,keyPress.rt,keyPress.rl,cueExoPos,Stair2.response,keyPress_2.rt,keyPress_2.rl,key_start.keys,key_start.rt,Quest_Ans.response,Quest_Ans.rt,Session,Participant,date,expName,psychopyVersion,frameRate,
,0,1,81,,,,,,,,,,,,0,90,-4.6,left,1,1.265722431,left,,,,,,,,,1,14,2016_Jan_02_1739,Flow_endo_post,3.0.5,60.14248091,
,1,1,80,,,,,,,,,,,,180,90,-4.6,left,1,0.849754848,left,,,,,,,,,1,14,2016_Jan_02_1739,Flow_endo_post,3.0.5,60.14248091,
,2,1,79,,,,,,,,,,,,180,90,-4.6,left,1,0.716857323,left,,,,,,,,,1,14,2016_Jan_02_1739,Flow_endo_post,3.0.5,60.14248091,
,3,1,78,,,,,,,,,,,,0,0,4.6,right,1,1.348605715,right,,,,,,,,,1,14,2016_Jan_02_1739,Flow_endo_post,3.0.5,60.14248091,
,4,1,77,,,,,,,,,,,,0,0,-4.6,left,1,0.700235022,left,,,,,,,,,1,14,2016_Jan_02_1739,Flow_endo_post,3.0.5,60.14248091,
,5,1,76,,,,,,,,,,,,180,90,4.6,right,1,0.733433916,right,,,,,,,,,1,14,2016_Jan_02_1739,Flow_endo_post,3.0.5,60.14248091,
,6,1,75,,,,,,,,,,,,0,90,4.6,right,1,0.532689316,right,,,,,,,,,1,14,2016_Jan_02_1739,Flow_endo_post,3.0.5,60.14248091,
,7,1,74,,,,,,,,,,,,0,0,4.6,right,1,1.082715197,right,,,,,,,,,1,14,2016_Jan_02_1739,Flow_endo_post,3.0.5,60.14248091,
,8,1,73,,,,,,,,,,,,0,90,-4.6,left,1,0.866464836,left,,,,,,,,,1,14,2016_Jan_02_1739,Flow_endo_post,3.0.5,60.14248091,
,9,1,72,,,,,,,,,,,,180,0,4.6,right,1,0.916401396,right,,,,,,,,,1,14,2016_Jan_02_1739,Flow_endo_post,3.0.5,60.14248091,
,10,1,71,,,,,,,,,,,,180,0,4.6,right,1,0.666991636,right,,,,,,,,,1,14,2016_Jan_02_1739,Flow_endo_post,3.0.5,60.14248091,
,11,1,70,,,,,,,,,,,,180,90,-4.6,left,0,2.096473984,right,,,,,,,,,1,14,2016_Jan_02_1739,Flow_endo_post,3.0.5,60.14248091,
,12,1,71,,,,,,,,,,,,0,90,-4.6,left,1,0.667279607,left,,,,,,,,,1,14,2016_Jan_02_1739,Flow_endo_post,3.0.5,60.14248091,
,13,1,71,,,,,,,,,,,,0,0,-4.6,left,1,0.949522831,left,,,,,,,,,1,14,2016_Jan_02_1739,Flow_endo_post,3.0.5,60.14248091,
,14,1,71,,,,,,,,,,,,180,90,-4.6,left,1,0.799887944,left,,,,,,,,,1,14,2016_Jan_02_1739,Flow_endo_post,3.0.5,60.14248091,
,15,1,70,,,,,,,,,,,,0,0,4.6,right,1,0.766633133,right,,,,,,,,,1,14,2016_Jan_02_1739,Flow_endo_post,3.0.5,60.14248091,
,16,1,70,,,,,,,,,,,,0,0,-4.6,left,1,1.098976767,left,,,,,,,,,1,14,2016_Jan_02_1739,Flow_endo_post,3.0.5,60.14248091,
,17,1,70,,,,,,,,,,,,180,0,-4.6,left,1,0.517333964,left,,,,,,,,,1,14,2016_Jan_02_1739,Flow_endo_post,3.0.5,60.14248091,
,18,1,69,,,,,,,,,,,,180,90,4.6,right,1,0.633724139,right,,,,,,,,,1,14,2016_Jan_02_1739,Flow_endo_post,3.0.5,60.14248091,
,19,1,69,,,,,,,,,,,,0,90,4.6,right,1,0.650353191,right,,,,,,,,,1,14,2016_Jan_02_1739,Flow_endo_post,3.0.5,60.14248091,
,20,1,69,,,,,,,,,,,,180,90,-4.6,left,1,0.7501174,left,,,,,,,,,1,14,2016_Jan_02_1739,Flow_endo_post,3.0.5,60.14248091,
,21,1,68,,,,,,,,,,,,0,0,4.6,right,1,0.7502904,right,,,,,,,,,1,14,2016_Jan_02_1739,Flow_endo_post,3.0.5,60.14248091,
,22,1,68,,,,,,,,,,,,180,90,-4.6,left,1,0.733983852,left,,,,,,,,,1,14,2016_Jan_02_1739,Flow_endo_post,3.0.5,60.14248091,
,23,1,68,,,,,,,,,,,,0,90,4.6,right,1,0.700212384,right,,,,,,,,,1,14,2016_Jan_02_1739,Flow_endo_post,3.0.5,60.14248091,
,24,1,67,,,,,,,,,,,,180,0,4.6,right,1,0.64998058,right,,,,,,,,,1,14,2016_Jan_02_1739,Flow_endo_post,3.0.5,60.14248091,
,25,1,67,,,,,,,,,,,,0,90,4.6,right,1,0.616963584,right,,,,,,,,,1,14,2016_Jan_02_1739,Flow_endo_post,3.0.5,60.14248091,
,26,1,67,,,,,,,,,,,,180,0,-4.6,left,0,0.583855003,right,,,,,,,,,1,14,2016_Jan_02_1739,Flow_endo_post,3.0.5,60.14248091,
,27,1,68,,,,,,,,,,,,0,90,4.6,right,1,0.60046879,right,,,,,,,,,1,14,2016_Jan_02_1739,Flow_endo_post,3.0.5,60.14248091,
,28,1,68,,,,,,,,,,,,180,90,4.6,right,1,0.650332863,right,,,,,,,,,1,14,2016_Jan_02_1739,Flow_endo_post,3.0.5,60.14248091,
,29,1,68,,,,,,,,,,,,180,0,4.6,right,1,0.650484197,right,,,,,,,,,1,14,2016_Jan_02_1739,Flow_endo_post,3.0.5,60.14248091,
,30,1,67,,,,,,,,,,,,180,0,4.6,right,1,0.766414258,right,,,,,,,,,1,14,2016_Jan_02_1739,Flow_endo_post,3.0.5,60.14248091,
,31,1,67,,,,,,,,,,,,0,90,-4.6,left,0,0.966413261,right,,,,,,,,,1,14,2016_Jan_02_1739,Flow_endo_post,3.0.5,60.14248091,
,32,1,68,,,,,,,,,,,,180,0,4.6,right,1,0.716868884,right,,,,,,,,,1,14,2016_Jan_02_1739,Flow_endo_post,3.0.5,60.14248091,
,33,1,68,,,,,,,,,,,,0,0,-4.6,left,0,0.816519476,right,,,,,,,,,1,14,2016_Jan_02_1739,Flow_endo_post,3.0.5,60.14248091,
,34,1,69,,,,,,,,,,,,0,0,-4.6,left,0,0.633547175,right,,,,,,,,,1,14,2016_Jan_02_1739,Flow_endo_post,3.0.5,60.14248091,
,35,1,70,,,,,,,,,,,,0,0,4.6,right,1,0.582565154,right,,,,,,,,,1,14,2016_Jan_02_1739,Flow_endo_post,3.0.5,60.14248091,
,36,1,70,,,,,,,,,,,,0,90,4.6,right,1,0.617060406,right,,,,,,,,,1,14,2016_Jan_02_1739,Flow_endo_post,3.0.5,60.14248091,
,37,1,70,,,,,,,,,,,,180,0,4.6,right,1,0.617083293,right,,,,,,,,,1,14,2016_Jan_02_1739,Flow_endo_post,3.0.5,60.14248091,
,38,1,69,,,,,,,,,,,,0,0,4.6,right,1,0.73367063,right,,,,,,,,,1,14,2016_Jan_02_1739,Flow_endo_post,3.0.5,60.14248091,
,39,1,69,,,,,,,,,,,,180,90,4.6,right,1,0.93287803,right,,,,,,,,,1,14,2016_Jan_02_1739,Flow_endo_post,3.0.5,60.14248091,
,40,1,69,,,,,,,,,,,,180,0,-4.6,left,1,1.182108844,left,,,,,,,,,1,14,2016_Jan_02_1739,Flow_endo_post,3.0.5,60.14248091,
,41,1,68,,,,,,,,,,,,180,0,4.6,right,1,0.750089904,right,,,,,,,,,1,14,2016_Jan_02_1739,Flow_endo_post,3.0.5,60.14248091,
,42,1,68,,,,,,,,,,,,0,0,4.6,right,1,0.583833015,right,,,,,,,,,1,14,2016_Jan_02_1739,Flow_endo_post,3.0.5,60.14248091,
,43,1,68,,,,,,,,,,,,0,0,-4.6,left,1,1.115924889,left,,,,,,,,,1,14,2016_Jan_02_1739,Flow_endo_post,3.0.5,60.14248091,
,44,1,67,,,,,,,,,,,,0,90,-4.6,left,1,0.632435985,left,,,,,,,,,1,14,2016_Jan_02_1739,Flow_endo_post,3.0.5,60.14248091,
,45,1,67,,,,,,,,,,,,180,90,-4.6,left,1,0.600461595,left,,,,,,,,,1,14,2016_Jan_02_1739,Flow_endo_post,3.0.5,60.14248091,
,46,1,67,,,,,,,,,,,,180,0,4.6,right,1,0.816629686,right,,,,,,,,,1,14,2016_Jan_02_1739,Flow_endo_post,3.0.5,60.14248091,
,47,1,66,,,,,,,,,,,,180,0,4.6,right,1,1.613463548,right,,,,,,,,,1,14,2016_Jan_02_1739,Flow_endo_post,3.0.5,60.14248091,
,48,1,66,,,,,,,,,,,,0,0,-4.6,left,0,1.049067092,right,,,,,,,,,1,14,2016_Jan_02_1739,Flow_endo_post,3.0.5,60.14248091,
,49,1,67,,,,,,,,,,,,0,90,-4.6,left,0,0.650206006,right,,,,,,,,,1,14,2016_Jan_02_1739,Flow_endo_post,3.0.5,60.14248091,
,50,1,68,,,,,,,,,,,,0,90,-4.6,left,0,2.263214418,right,,,,,,,,,1,14,2016_Jan_02_1739,Flow_endo_post,3.0.5,60.14248091,
,51,1,69,,,,,,,,,,,,180,90,-4.6,left,1,2.712044015,left,,,,,,,,,1,14,2016_Jan_02_1739,Flow_endo_post,3.0.5,60.14248091,
,52,1,69,,,,,,,,,,,,0,90,-4.6,left,0,0.999532058,right,,,,,,,,,1,14,2016_Jan_02_1739,Flow_endo_post,3.0.5,60.14248091,
,53,1,70,,,,,,,,,,,,180,0,-4.6,left,1,0.700175245,left,,,,,,,,,1,14,2016_Jan_02_1739,Flow_endo_post,3.0.5,60.14248091,
,54,1,70,,,,,,,,,,,,0,90,-4.6,left,0,1.132545372,right,,,,,,,,,1,14,2016_Jan_02_1739,Flow_endo_post,3.0.5,60.14248091,
,55,1,71,,,,,,,,,,,,180,0,-4.6,left,0,0.782087194,right,,,,,,,,,1,14,2016_Jan_02_1739,Flow_endo_post,3.0.5,60.14248091,
,56,1,72,,,,,,,,,,,,180,0,-4.6,left,0,0.650404665,right,,,,,,,,,1,14,2016_Jan_02_1739,Flow_endo_post,3.0.5,60.14248091,
,57,1,73,,,,,,,,,,,,0,0,4.6,right,1,0.566889355,right,,,,,,,,,1,14,2016_Jan_02_1739,Flow_endo_post,3.0.5,60.14248091,
,58,1,73,,,,,,,,,,,,0,90,4.6,right,1,0.616821027,right,,,,,,,,,1,14,2016_Jan_02_1739,Flow_endo_post,3.0.5,60.14248091,
,59,1,73,,,,,,,,,,,,180,90,4.6,right,1,0.600473003,right,,,,,,,,,1,14,2016_Jan_02_1739,Flow_endo_post,3.0.5,60.14248091,
,60,1,72,,,,,,,,,,,,0,90,4.6,right,1,0.65023153,right,,,,,,,,,1,14,2016_Jan_02_1739,Flow_endo_post,3.0.5,60.14248091,
,61,1,72,,,,,,,,,,,,180,90,-4.6,left,1,0.816607529,left,,,,,,,,,1,14,2016_Jan_02_1739,Flow_endo_post,3.0.5,60.14248091,
,62,1,72,,,,,,,,,,,,180,90,-4.6,left,1,0.567252855,left,,,,,,,,,1,14,2016_Jan_02_1739,Flow_endo_post,3.0.5,60.14248091,
,63,1,71,,,,,,,,,,,,180,0,-4.6,left,1,0.599185346,left,,,,,,,,,1,14,2016_Jan_02_1739,Flow_endo_post,3.0.5,60.14248091,
,64,1,71,,,,,,,,,,,,0,0,-4.6,left,1,0.567217368,left,,,,,,,,,1,14,2016_Jan_02_1739,Flow_endo_post,3.0.5,60.14248091,
,65,1,71,,,,,,,,,,,,180,0,4.6,right,1,0.649977383,right,,,,,,,,,1,14,2016_Jan_02_1739,Flow_endo_post,3.0.5,60.14248091,
,66,1,70,,,,,,,,,,,,0,90,4.6,right,1,0.550528339,right,,,,,,,,,1,14,2016_Jan_02_1739,Flow_endo_post,3.0.5,60.14248091,
,67,1,70,,,,,,,,,,,,0,90,-4.6,left,1,1.248932889,left,,,,,,,,,1,14,2016_Jan_02_1739,Flow_endo_post,3.0.5,60.14248091,
,68,1,70,,,,,,,,,,,,180,0,4.6,right,1,0.916397865,right,,,,,,,,,1,14,2016_Jan_02_1739,Flow_endo_post,3.0.5,60.14248091,
,69,1,69,,,,,,,,,,,,0,0,4.6,right,1,0.567237087,right,,,,,,,,,1,14,2016_Jan_02_1739,Flow_endo_post,3.0.5,60.14248091,
,70,1,69,,,,,,,,,,,,0,90,-4.6,left,1,0.982786895,left,,,,,,,,,1,14,2016_Jan_02_1739,Flow_endo_post,3.0.5,60.14248091,
,71,1,69,,,,,,,,,,,,0,0,4.6,right,1,1.79765158,right,,,,,,,,,1,14,2016_Jan_02_1739,Flow_endo_post,3.0.5,60.14248091,
,72,1,68,,,,,,,,,,,,180,0,-4.6,left,0,0.733627284,right,,,,,,,,,1,14,2016_Jan_02_1739,Flow_endo_post,3.0.5,60.14248091,
,73,1,69,,,,,,,,,,,,180,90,4.6,right,1,0.849835293,right,,,,,,,,,1,14,2016_Jan_02_1739,Flow_endo_post,3.0.5,60.14248091,
,74,1,69,,,,,,,,,,,,0,0,-4.6,left,1,0.61710525,left,,,,,,,,,1,14,2016_Jan_02_1739,Flow_endo_post,3.0.5,60.14248091,
,75,1,69,,,,,,,,,,,,0,0,-4.6,left,1,0.716941978,left,,,,,,,,,1,14,2016_Jan_02_1739,Flow_endo_post,3.0.5,60.14248091,
,76,1,68,,,,,,,,,,,,180,90,4.6,right,1,0.833248301,right,,,,,,,,,1,14,2016_Jan_02_1739,Flow_endo_post,3.0.5,60.14248091,
,77,1,68,,,,,,,,,,,,0,0,4.6,right,1,0.899645466,right,,,,,,,,,1,14,2016_Jan_02_1739,Flow_endo_post,3.0.5,60.14248091,
,78,1,68,,,,,,,,,,,,180,90,4.6,right,1,1.132272982,right,,,,,,,,,1,14,2016_Jan_02_1739,Flow_endo_post,3.0.5,60.14248091,
,79,1,67,,,,,,,,,,,,0,0,-4.6,left,0,0.650220331,right,,,,,,,,,1,14,2016_Jan_02_1739,Flow_endo_post,3.0.5,60.14248091,
,80,1,68,,,,,,,,,,,,180,0,-4.6,left,0,0.6004818,right,,,,,,,,,1,14,2016_Jan_02_1739,Flow_endo_post,3.0.5,60.14248091,
,81,1,69,,,,,,,,,,,,180,90,4.6,right,1,0.517334276,right,,,,,,,,,1,14,2016_Jan_02_1739,Flow_endo_post,3.0.5,60.14248091,
,82,1,69,,,,,,,,,,,,0,90,4.6,right,1,0.700095089,right,,,,,,,,,1,14,2016_Jan_02_1739,Flow_endo_post,3.0.5,60.14248091,
,83,1,69,,,,,,,,,,,,180,0,4.6,right,1,0.500568744,right,,,,,,,,,1,14,2016_Jan_02_1739,Flow_endo_post,3.0.5,60.14248091,
,84,1,68,,,,,,,,,,,,0,90,-4.6,left,1,0.533930963,left,,,,,,,,,1,14,2016_Jan_02_1739,Flow_endo_post,3.0.5,60.14248091,
,85,1,68,,,,,,,,,,,,0,90,4.6,right,1,1.232036279,right,,,,,,,,,1,14,2016_Jan_02_1739,Flow_endo_post,3.0.5,60.14248091,
,86,1,68,,,,,,,,,,,,180,0,4.6,right,1,0.550238391,right,,,,,,,,,1,14,2016_Jan_02_1739,Flow_endo_post,3.0.5,60.14248091,
,87,1,67,,,,,,,,,,,,180,90,-4.6,left,0,0.783371786,right,,,,,,,,,1,14,2016_Jan_02_1739,Flow_endo_post,3.0.5,60.14248091,
,88,1,68,,,,,,,,,,,,0,90,-4.6,left,1,0.550763494,left,,,,,,,,,1,14,2016_Jan_02_1739,Flow_endo_post,3.0.5,60.14248091,
,89,1,68,,,,,,,,,,,,0,0,4.6,right,1,1.149184679,right,,,,,,,,,1,14,2016_Jan_02_1739,Flow_endo_post,3.0.5,60.14248091,
,90,1,68,,,,,,,,,,,,180,0,4.6,right,1,0.666999793,right,,,,,,,,,1,14,2016_Jan_02_1739,Flow_endo_post,3.0.5,60.14248091,
,,,,0,1,81,,,,,,,,,,90,-4.6,left,,,,-4.6,1,3.044727366,left,,,,,1,14,2016_Jan_02_1739,Flow_endo_post,3.0.5,60.14248091,
,,,,1,1,80,,,,,,,,,,0,-4.6,left,,,,-4.6,1,1.415201046,left,,,,,1,14,2016_Jan_02_1739,Flow_endo_post,3.0.5,60.14248091,
,,,,2,1,79,,,,,,,,,,90,-4.6,left,,,,-4.6,1,1.065765111,left,,,,,1,14,2016_Jan_02_1739,Flow_endo_post,3.0.5,60.14248091,
,,,,3,1,78,,,,,,,,,,0,4.6,right,,,,4.6,1,1.032777757,right,,,,,1,14,2016_Jan_02_1739,Flow_endo_post,3.0.5,60.14248091,
,,,,4,1,77,,,,,,,,,,0,4.6,right,,,,4.6,1,0.933167038,right,,,,,1,14,2016_Jan_02_1739,Flow_endo_post,3.0.5,60.14248091,
,,,,5,1,76,,,,,,,,,,90,4.6,right,,,,4.6,1,0.833266927,right,,,,,1,14,2016_Jan_02_1739,Flow_endo_post,3.0.5,60.14248091,
,,,,6,1,75,,,,,,,,,,0,-4.6,left,,,,-4.6,1,0.600406246,left,,,,,1,14,2016_Jan_02_1739,Flow_endo_post,3.0.5,60.14248091,
,,,,7,1,74,,,,,,,,,,90,4.6,right,,,,-4.6,0,0.94836862,left,,,,,1,14,2016_Jan_02_1739,Flow_endo_post,3.0.5,60.14248091,
,,,,8,1,75,,,,,,,,,,0,4.6,right,,,,-4.6,1,1.897415503,right,,,,,1,14,2016_Jan_02_1739,Flow_endo_post,3.0.5,60.14248091,
,,,,9,1,75,,,,,,,,,,0,4.6,right,,,,4.6,1,0.799700177,right,,,,,1,14,2016_Jan_02_1739,Flow_endo_post,3.0.5,60.14248091,
,,,,10,1,75,,,,,,,,,,0,4.6,right,,,,4.6,1,0.550597992,right,,,,,1,14,2016_Jan_02_1739,Flow_endo_post,3.0.5,60.14248091,
,,,,11,1,74,,,,,,,,,,90,-4.6,left,,,,4.6,0,1.082649786,right,,,,,1,14,2016_Jan_02_1739,Flow_endo_post,3.0.5,60.14248091,
,,,,12,1,75,,,,,,,,,,0,4.6,right,,,,-4.6,0,1.215346142,left,,,,,1,14,2016_Jan_02_1739,Flow_endo_post,3.0.5,60.14248091,
,,,,13,1,76,,,,,,,,,,0,4.6,right,,,,-4.6,1,0.914589034,right,,,,,1,14,2016_Jan_02_1739,Flow_endo_post,3.0.5,60.14248091,
,,,,14,1,76,,,,,,,,,,90,-4.6,left,,,,-4.6,1,1.298529667,left,,,,,1,14,2016_Jan_02_1739,Flow_endo_post,3.0.5,60.14248091,
,,,,15,1,76,,,,,,,,,,0,-4.6,left,,,,-4.6,1,1.531648958,left,,,,,1,14,2016_Jan_02_1739,Flow_endo_post,3.0.5,60.14248091,
,,,,16,1,75,,,,,,,,,,0,4.6,right,,,,-4.6,0,0.866164795,left,,,,,1,14,2016_Jan_02_1739,Flow_endo_post,3.0.5,60.14248091,
,,,,17,1,76,,,,,,,,,,0,-4.6,left,,,,-4.6,1,0.750116377,left,,,,,1,14,2016_Jan_02_1739,Flow_endo_post,3.0.5,60.14248091,
,,,,18,1,76,,,,,,,,,,0,4.6,right,,,,4.6,1,1.465177701,right,,,,,1,14,2016_Jan_02_1739,Flow_endo_post,3.0.5,60.14248091,
,,,,19,1,76,,,,,,,,,,0,4.6,right,,,,4.6,1,0.783522255,right,,,,,1,14,2016_Jan_02_1739,Flow_endo_post,3.0.5,60.14248091,
,,,,20,1,75,,,,,,,,,,90,4.6,right,,,,-4.6,0,1.431918234,left,,,,,1,14,2016_Jan_02_1739,Flow_endo_post,3.0.5,60.14248091,
,,,,21,1,76,,,,,,,,,,0,-4.6,left,,,,-4.6,1,0.882797077,left,,,,,1,14,2016_Jan_02_1739,Flow_endo_post,3.0.5,60.14248091,
,,,,22,1,76,,,,,,,,,,0,-4.6,left,,,,4.6,1,1.032802622,left,,,,,1,14,2016_Jan_02_1739,Flow_endo_post,3.0.5,60.14248091,
,,,,23,1,76,,,,,,,,,,90,-4.6,left,,,,-4.6,1,0.667012623,left,,,,,1,14,2016_Jan_02_1739,Flow_endo_post,3.0.5,60.14248091,
,,,,24,1,75,,,,,,,,,,0,-4.6,left,,,,4.6,1,0.932874416,left,,,,,1,14,2016_Jan_02_1739,Flow_endo_post,3.0.5,60.14248091,
,,,,25,1,75,,,,,,,,,,0,4.6,right,,,,4.6,1,0.650351901,right,,,,,1,14,2016_Jan_02_1739,Flow_endo_post,3.0.5,60.14248091,
,,,,26,1,75,,,,,,,,,,0,4.6,right,,,,4.6,1,0.582557527,right,,,,,1,14,2016_Jan_02_1739,Flow_endo_post,3.0.5,60.14248091,
,,,,27,1,74,,,,,,,,,,0,4.6,right,,,,-4.6,0,1.34872682,left,,,,,1,14,2016_Jan_02_1739,Flow_endo_post,3.0.5,60.14248091,
,,,,28,1,75,,,,,,,,,,90,4.6,right,,,,-4.6,0,1.265219687,left,,,,,1,14,2016_Jan_02_1739,Flow_endo_post,3.0.5,60.14248091,
,,,,29,1,76,,,,,,,,,,0,4.6,right,,,,4.6,1,0.567104096,right,,,,,1,14,2016_Jan_02_1739,Flow_endo_post,3.0.5,60.14248091,
,,,,30,1,76,,,,,,,,,,90,4.6,right,,,,-4.6,1,0.949313554,right,,,,,1,14,2016_Jan_02_1739,Flow_endo_post,3.0.5,60.14248091,
,,,,31,1,76,,,,,,,,,,0,-4.6,left,,,,4.6,1,0.750128159,left,,,,,1,14,2016_Jan_02_1739,Flow_endo_post,3.0.5,60.14248091,
,,,,32,1,75,,,,,,,,,,90,-4.6,left,,,,4.6,0,0.833248882,right,,,,,1,14,2016_Jan_02_1739,Flow_endo_post,3.0.5,60.14248091,
,,,,33,1,76,,,,,,,,,,0,-4.6,left,,,,-4.6,0,1.398218948,right,,,,,1,14,2016_Jan_02_1739,Flow_endo_post,3.0.5,60.14248091,
,,,,34,1,77,,,,,,,,,,90,4.6,right,,,,4.6,1,1.43183297,right,,,,,1,14,2016_Jan_02_1739,Flow_endo_post,3.0.5,60.14248091,
,,,,35,1,77,,,,,,,,,,90,4.6,right,,,,4.6,1,0.916296775,right,,,,,1,14,2016_Jan_02_1739,Flow_endo_post,3.0.5,60.14248091,
,,,,36,1,77,,,,,,,,,,90,4.6,right,,,,-4.6,0,1.198917749,left,,,,,1,14,2016_Jan_02_1739,Flow_endo_post,3.0.5,60.14248091,
,,,,37,1,78,,,,,,,,,,0,4.6,right,,,,-4.6,1,0.749876818,right,,,,,1,14,2016_Jan_02_1739,Flow_endo_post,3.0.5,60.14248091,
,,,,38,1,78,,,,,,,,,,90,4.6,right,,,,-4.6,1,0.700372238,right,,,,,1,14,2016_Jan_02_1739,Flow_endo_post,3.0.5,60.14248091,
,,,,39,1,78,,,,,,,,,,90,4.6,right,,,,-4.6,1,0.799997614,right,,,,,1,14,2016_Jan_02_1739,Flow_endo_post,3.0.5,60.14248091,
,,,,40,1,77,,,,,,,,,,90,-4.6,left,,,,4.6,0,1.197774375,right,,,,,1,14,2016_Jan_02_1739,Flow_endo_post,3.0.5,60.14248091,
,,,,41,1,78,,,,,,,,,,0,4.6,right,,,,-4.6,0,1.065674117,left,,,,,1,14,2016_Jan_02_1739,Flow_endo_post,3.0.5,60.14248091,
,,,,42,1,79,,,,,,,,,,0,-4.6,left,,,,4.6,0,0.666855823,right,,,,,1,14,2016_Jan_02_1739,Flow_endo_post,3.0.5,60.14248091,
,,,,43,1,80,,,,,,,,,,90,4.6,right,,,,4.6,1,0.750095431,right,,,,,1,14,2016_Jan_02_1739,Flow_endo_post,3.0.5,60.14248091,
,,,,44,1,80,,,,,,,,,,90,-4.6,left,,,,-4.6,1,0.633687529,left,,,,,1,14,2016_Jan_02_1739,Flow_endo_post,3.0.5,60.14248091,
,,,,45,1,80,,,,,,,,,,0,4.6,right,,,,4.6,1,0.633606943,right,,,,,1,14,2016_Jan_02_1739,Flow_endo_post,3.0.5,60.14248091,
,,,,,,,,,,,,,,,,,,,,,,,,,,space,10.90780228,,,1,14,2016_Jan_02_1739,Flow_endo_post,3.0.5,60.14248091,
My state (body feelings, emotions and thoughts) during the task on the computer was similar to the state I had during my music performance.,,,,,,,0,0,0,0,,,,,,,,,,,,,,,,,,5,15.22,1,14,2016_Jan_02_1739,Flow_endo_post,3.0.5,60.14248091
I performed automatically without having to think about it.,,,,,,,,,,,0,0,0,25,,,,,,,,,,,,,,3,4.588,1,14,2016_Jan_02_1739,Flow_endo_post,3.0.5,60.14248091,
I felt that I had everything under control.,,,,,,,,,,,0,1,1,13,,,,,,,,,,,,,,3,3.466,1,14,2016_Jan_02_1739,Flow_endo_post,3.0.5,60.14248091,
Time seemed to alter (either slows down or speeds up).,,,,,,,,,,,0,2,2,23,,,,,,,,,,,,,,2,11.864,1,14,2016_Jan_02_1739,Flow_endo_post,3.0.5,60.14248091,
My attention was focused entirely on what I was doing.,,,,,,,,,,,0,3,3,3,,,,,,,,,,,,,,2,3.016,1,14,2016_Jan_02_1739,Flow_endo_post,3.0.5,60.14248091,
I knew what I want to achieve.,,,,,,,,,,,0,4,4,1,,,,,,,,,,,,,,3,1.59,1,14,2016_Jan_02_1739,Flow_endo_post,3.0.5,60.14248091,
The way time passed seemed to be different from normal.,,,,,,,,,,,0,5,5,24,,,,,,,,,,,,,,1,2.07,1,14,2016_Jan_02_1739,Flow_endo_post,3.0.5,60.14248091,
The experience left me feeling great.,,,,,,,,,,,0,6,6,18,,,,,,,,,,,,,,1,1.804,1,14,2016_Jan_02_1739,Flow_endo_post,3.0.5,60.14248091,
My goals were clearly defined. ,,,,,,,,,,,0,7,7,2,,,,,,,,,,,,,,1,2.205,1,14,2016_Jan_02_1739,Flow_endo_post,3.0.5,60.14248091,
The challenge and my skills were at an equally high level.,,,,,,,,,,,0,8,8,10,,,,,,,,,,,,,,1,4.161,1,14,2016_Jan_02_1739,Flow_endo_post,3.0.5,60.14248091,
I did things spontaneously without having to think.,,,,,,,,,,,0,9,9,22,,,,,,,,,,,,,,3,2.383,1,14,2016_Jan_02_1739,Flow_endo_post,3.0.5,60.14248091,
I was challenged, but I believe my skills will allow me to meet that challenge.,,,,,,,,,,,0,10,10,9,,,,,,,,,,,,,,3,5.657,1,14,2016_Jan_02_1739,Flow_endo_post,3.0.5,60.14248091
I had a strong sense of what I wanted to accomplish.,,,,,,,,,,,0,11,11,0,,,,,,,,,,,,,,3,2.452,1,14,2016_Jan_02_1739,Flow_endo_post,3.0.5,60.14248091,
I felt just the right amount of challenge. ,,,,,,,,,,,0,12,12,11,,,,,,,,,,,,,,3,2.519,1,14,2016_Jan_02_1739,Flow_endo_post,3.0.5,60.14248091,
I had no difficulty concentrating.,,,,,,,,,,,0,13,13,6,,,,,,,,,,,,,,3,5.995,1,14,2016_Jan_02_1739,Flow_endo_post,3.0.5,60.14248091,
I was not concerned with how I was presenting myself.,,,,,,,,,,,0,14,14,15,,,,,,,,,,,,,,4,14.107,1,14,2016_Jan_02_1739,Flow_endo_post,3.0.5,60.14248091,
I lost my normal awareness of time.,,,,,,,,,,,0,15,15,20,,,,,,,,,,,,,,2,4.715,1,14,2016_Jan_02_1739,Flow_endo_post,3.0.5,60.14248091,
I had a good idea while I was performing about how well I was doing.,,,,,,,,,,,0,16,16,8,,,,,,,,,,,,,,2,4.377,1,14,2016_Jan_02_1739,Flow_endo_post,3.0.5,60.14248091,
It was really clear to me how my performance was going.,,,,,,,,,,,0,17,17,7,,,,,,,,,,,,,,3,1.835,1,14,2016_Jan_02_1739,Flow_endo_post,3.0.5,60.14248091,
I felt as though I had everything under control.,,,,,,,,,,,0,18,18,12,,,,,,,,,,,,,,2,4.747,1,14,2016_Jan_02_1739,Flow_endo_post,3.0.5,60.14248091,
The experience was extremely rewarding.,,,,,,,,,,,0,19,19,19,,,,,,,,,,,,,,3,2.635,1,14,2016_Jan_02_1739,Flow_endo_post,3.0.5,60.14248091,
I really enjoyed the experience.,,,,,,,,,,,0,20,20,17,,,,,,,,,,,,,,2,3.984,1,14,2016_Jan_02_1739,Flow_endo_post,3.0.5,60.14248091,
I was not concerned with how others might be evaluating me.,,,,,,,,,,,0,21,21,14,,,,,,,,,,,,,,3,5.758,1,14,2016_Jan_02_1739,Flow_endo_post,3.0.5,60.14248091,
I had total concentration.,,,,,,,,,,,0,22,22,5,,,,,,,,,,,,,,1,1.372,1,14,2016_Jan_02_1739,Flow_endo_post,3.0.5,60.14248091,
Things just seemed to happen automatically.,,,,,,,,,,,0,23,23,21,,,,,,,,,,,,,,3,4.199,1,14,2016_Jan_02_1739,Flow_endo_post,3.0.5,60.14248091,
It was no effort to keep my mind on what was happening.,,,,,,,,,,,0,24,24,4,,,,,,,,,,,,,,2,8.686,1,14,2016_Jan_02_1739,Flow_endo_post,3.0.5,60.14248091,
I was not worried about what others might be thinking of me.,,,,,,,,,,,0,25,25,16,,,,,,,,,,,,,,2,3.282,1,14,2016_Jan_02_1739,Flow_endo_post,3.0.5,60.14248091,
