Stair.thisTrialN;Stair.stepSize;Stair.intensity;Stair2.thisTrialN;Stair2.stepSize;Stair2.intensity;Time_pas_Ans.response;Time_pas_Ans.rt;cueExoPos;targetXOri;targetXPos;CorrectAns;Stair.response;keyPress_2.rt;keyPress_2.rl;cueOri;Stair2.response;keyPress.rt;keyPress.rl;Session;Participant;date;expName;psychopyVersion;frameRate
;;;;;;Friday;1237.412;;;;;;;;;;;;2;10;2016_Jan_07_1313;Flow_exo_pre;3.0.5;60.14037582
0;1;81;;;;;;-4.6;0;4.6;right;1;0.650434498;right;;;;;2;10;2016_Jan_07_1313;Flow_exo_pre;3.0.5;60.14037582
1;1;80;;;;;;-4.6;90;4.6;right;1;0.434098227;right;;;;;2;10;2016_Jan_07_1313;Flow_exo_pre;3.0.5;60.14037582
2;1;79;;;;;;4.6;90;4.6;right;1;0.334377981;right;;;;;2;10;2016_Jan_07_1313;Flow_exo_pre;3.0.5;60.14037582
3;1;78;;;;;;4.6;0;-4.6;left;1;0.401086402;left;;;;;2;10;2016_Jan_07_1313;Flow_exo_pre;3.0.5;60.14037582
4;1;77;;;;;;-4.6;90;-4.6;left;1;0.33437259;left;;;;;2;10;2016_Jan_07_1313;Flow_exo_pre;3.0.5;60.14037582
5;1;76;;;;;;4.6;0;-4.6;left;0;0.517139197;right;;;;;2;10;2016_Jan_07_1313;Flow_exo_pre;3.0.5;60.14037582
6;1;77;;;;;;4.6;0;4.6;right;1;0.417342599;right;;;;;2;10;2016_Jan_07_1313;Flow_exo_pre;3.0.5;60.14037582
7;1;77;;;;;;4.6;90;4.6;right;1;0.433941376;right;;;;;2;10;2016_Jan_07_1313;Flow_exo_pre;3.0.5;60.14037582
8;1;77;;;;;;-4.6;90;-4.6;left;1;0.301052453;left;;;;;2;10;2016_Jan_07_1313;Flow_exo_pre;3.0.5;60.14037582
9;1;76;;;;;;4.6;0;4.6;right;1;0.41752393;right;;;;;2;10;2016_Jan_07_1313;Flow_exo_pre;3.0.5;60.14037582
10;1;76;;;;;;4.6;0;4.6;right;1;0.51816942;right;;;;;2;10;2016_Jan_07_1313;Flow_exo_pre;3.0.5;60.14037582
11;1;76;;;;;;-4.6;0;4.6;right;0;0.417467541;left;;;;;2;10;2016_Jan_07_1313;Flow_exo_pre;3.0.5;60.14037582
12;1;77;;;;;;4.6;90;-4.6;left;1;0.500646812;left;;;;;2;10;2016_Jan_07_1313;Flow_exo_pre;3.0.5;60.14037582
13;1;77;;;;;;4.6;90;4.6;right;1;0.384189525;right;;;;;2;10;2016_Jan_07_1313;Flow_exo_pre;3.0.5;60.14037582
14;1;77;;;;;;-4.6;0;-4.6;left;1;0.334341988;left;;;;;2;10;2016_Jan_07_1313;Flow_exo_pre;3.0.5;60.14037582
15;1;76;;;;;;-4.6;90;4.6;right;1;0.349690979;right;;;;;2;10;2016_Jan_07_1313;Flow_exo_pre;3.0.5;60.14037582
16;1;76;;;;;;-4.6;90;4.6;right;1;0.650302139;right;;;;;2;10;2016_Jan_07_1313;Flow_exo_pre;3.0.5;60.14037582
17;1;76;;;;;;-4.6;90;-4.6;left;1;0.367504348;left;;;;;2;10;2016_Jan_07_1313;Flow_exo_pre;3.0.5;60.14037582
18;1;75;;;;;;-4.6;0;4.6;right;1;0.532561848;right;;;;;2;10;2016_Jan_07_1313;Flow_exo_pre;3.0.5;60.14037582
19;1;75;;;;;;-4.6;0;4.6;right;1;0.517661098;right;;;;;2;10;2016_Jan_07_1313;Flow_exo_pre;3.0.5;60.14037582
20;1;75;;;;;;4.6;90;4.6;right;1;0.533924217;right;;;;;2;10;2016_Jan_07_1313;Flow_exo_pre;3.0.5;60.14037582
21;1;74;;;;;;-4.6;90;-4.6;left;1;0.28446127;left;;;;;2;10;2016_Jan_07_1313;Flow_exo_pre;3.0.5;60.14037582
22;1;74;;;;;;-4.6;0;4.6;right;1;0.385006511;right;;;;;2;10;2016_Jan_07_1313;Flow_exo_pre;3.0.5;60.14037582
23;1;74;;;;;;4.6;0;4.6;right;1;0.30112645;right;;;;;2;10;2016_Jan_07_1313;Flow_exo_pre;3.0.5;60.14037582
24;1;73;;;;;;4.6;90;4.6;right;1;0.451062524;right;;;;;2;10;2016_Jan_07_1313;Flow_exo_pre;3.0.5;60.14037582
25;1;73;;;;;;-4.6;0;-4.6;left;1;0.316420205;left;;;;;2;10;2016_Jan_07_1313;Flow_exo_pre;3.0.5;60.14037582
26;1;73;;;;;;4.6;0;4.6;right;1;0.284504889;right;;;;;2;10;2016_Jan_07_1313;Flow_exo_pre;3.0.5;60.14037582
27;1;72;;;;;;4.6;90;-4.6;left;1;0.350946826;left;;;;;2;10;2016_Jan_07_1313;Flow_exo_pre;3.0.5;60.14037582
28;1;72;;;;;;4.6;0;4.6;right;1;0.35151807;right;;;;;2;10;2016_Jan_07_1313;Flow_exo_pre;3.0.5;60.14037582
29;1;72;;;;;;-4.6;90;-4.6;left;1;0.334302415;left;;;;;2;10;2016_Jan_07_1313;Flow_exo_pre;3.0.5;60.14037582
30;1;71;;;;;;4.6;0;-4.6;left;0;0.333057114;right;;;;;2;10;2016_Jan_07_1313;Flow_exo_pre;3.0.5;60.14037582
31;1;72;;;;;;4.6;0;4.6;right;1;0.384646074;right;;;;;2;10;2016_Jan_07_1313;Flow_exo_pre;3.0.5;60.14037582
32;1;72;;;;;;4.6;0;4.6;right;0;1.094060138;left;;;;;2;10;2016_Jan_07_1313;Flow_exo_pre;3.0.5;60.14037582
33;1;73;;;;;;4.6;90;-4.6;left;0;1.095501103;right;;;;;2;10;2016_Jan_07_1313;Flow_exo_pre;3.0.5;60.14037582
34;1;74;;;;;;4.6;0;-4.6;left;0;0.083662278;right;;;;;2;10;2016_Jan_07_1313;Flow_exo_pre;3.0.5;60.14037582
35;1;75;;;;;;4.6;90;4.6;right;0;0.700178824;left;;;;;2;10;2016_Jan_07_1313;Flow_exo_pre;3.0.5;60.14037582
36;1;76;;;;;;-4.6;0;4.6;right;1;0.351017052;right;;;;;2;10;2016_Jan_07_1313;Flow_exo_pre;3.0.5;60.14037582
37;1;76;;;;;;-4.6;0;-4.6;left;1;0.400815691;left;;;;;2;10;2016_Jan_07_1313;Flow_exo_pre;3.0.5;60.14037582
38;1;76;;;;;;-4.6;90;-4.6;left;0;0.567269328;right;;;;;2;10;2016_Jan_07_1313;Flow_exo_pre;3.0.5;60.14037582
39;1;77;;;;;;-4.6;0;-4.6;left;1;0.368422157;left;;;;;2;10;2016_Jan_07_1313;Flow_exo_pre;3.0.5;60.14037582
40;1;77;;;;;;-4.6;90;-4.6;left;1;0.484241901;left;;;;;2;10;2016_Jan_07_1313;Flow_exo_pre;3.0.5;60.14037582
41;1;77;;;;;;4.6;0;-4.6;left;0;0.334407487;right;;;;;2;10;2016_Jan_07_1313;Flow_exo_pre;3.0.5;60.14037582
42;1;78;;;;;;4.6;90;4.6;right;1;0.417375272;right;;;;;2;10;2016_Jan_07_1313;Flow_exo_pre;3.0.5;60.14037582
43;1;78;;;;;;4.6;0;4.6;right;0;0.582460279;left;;;;;2;10;2016_Jan_07_1313;Flow_exo_pre;3.0.5;60.14037582
44;1;79;;;;;;-4.6;0;-4.6;left;1;0.400589832;left;;;;;2;10;2016_Jan_07_1313;Flow_exo_pre;3.0.5;60.14037582
45;1;79;;;;;;4.6;0;4.6;right;1;0.417503189;right;;;;;2;10;2016_Jan_07_1313;Flow_exo_pre;3.0.5;60.14037582
46;1;79;;;;;;4.6;90;-4.6;left;1;0.434126782;left;;;;;2;10;2016_Jan_07_1313;Flow_exo_pre;3.0.5;60.14037582
47;1;78;;;;;;4.6;0;-4.6;left;1;0.500445225;left;;;;;2;10;2016_Jan_07_1313;Flow_exo_pre;3.0.5;60.14037582
48;1;78;;;;;;4.6;90;-4.6;left;0;0.51777056;right;;;;;2;10;2016_Jan_07_1313;Flow_exo_pre;3.0.5;60.14037582
49;1;79;;;;;;-4.6;0;4.6;right;1;0.500628293;right;;;;;2;10;2016_Jan_07_1313;Flow_exo_pre;3.0.5;60.14037582
50;1;79;;;;;;4.6;0;-4.6;left;1;0.350962103;left;;;;;2;10;2016_Jan_07_1313;Flow_exo_pre;3.0.5;60.14037582
51;1;79;;;;;;-4.6;0;-4.6;left;1;0.385004295;left;;;;;2;10;2016_Jan_07_1313;Flow_exo_pre;3.0.5;60.14037582
52;1;78;;;;;;4.6;0;-4.6;left;1;0.417362754;left;;;;;2;10;2016_Jan_07_1313;Flow_exo_pre;3.0.5;60.14037582
53;1;78;;;;;;-4.6;90;4.6;right;1;0.384295469;right;;;;;2;10;2016_Jan_07_1313;Flow_exo_pre;3.0.5;60.14037582
54;1;78;;;;;;-4.6;90;-4.6;left;1;0.567111566;left;;;;;2;10;2016_Jan_07_1313;Flow_exo_pre;3.0.5;60.14037582
55;1;77;;;;;;-4.6;90;-4.6;left;1;0.351797318;left;;;;;2;10;2016_Jan_07_1313;Flow_exo_pre;3.0.5;60.14037582
56;1;77;;;;;;4.6;90;-4.6;left;0;0.384373866;right;;;;;2;10;2016_Jan_07_1313;Flow_exo_pre;3.0.5;60.14037582
57;1;78;;;;;;4.6;90;-4.6;left;0;0.550507014;right;;;;;2;10;2016_Jan_07_1313;Flow_exo_pre;3.0.5;60.14037582
58;1;79;;;;;;4.6;90;-4.6;left;1;0.31768634;left;;;;;2;10;2016_Jan_07_1313;Flow_exo_pre;3.0.5;60.14037582
59;1;79;;;;;;4.6;90;-4.6;left;1;0.434158288;left;;;;;2;10;2016_Jan_07_1313;Flow_exo_pre;3.0.5;60.14037582
60;1;79;;;;;;4.6;0;4.6;right;1;0.334207576;right;;;;;2;10;2016_Jan_07_1313;Flow_exo_pre;3.0.5;60.14037582
61;1;78;;;;;;-4.6;0;4.6;right;0;0.249912834;left;;;;;2;10;2016_Jan_07_1313;Flow_exo_pre;3.0.5;60.14037582
62;1;79;;;;;;4.6;90;4.6;right;1;0.384206333;right;;;;;2;10;2016_Jan_07_1313;Flow_exo_pre;3.0.5;60.14037582
63;1;79;;;;;;4.6;90;-4.6;left;1;0.366302275;left;;;;;2;10;2016_Jan_07_1313;Flow_exo_pre;3.0.5;60.14037582
64;1;79;;;;;;-4.6;0;4.6;right;1;0.400926543;right;;;;;2;10;2016_Jan_07_1313;Flow_exo_pre;3.0.5;60.14037582
65;1;78;;;;;;4.6;0;4.6;right;1;0.46749263;right;;;;;2;10;2016_Jan_07_1313;Flow_exo_pre;3.0.5;60.14037582
66;1;78;;;;;;4.6;0;-4.6;left;1;0.449420898;left;;;;;2;10;2016_Jan_07_1313;Flow_exo_pre;3.0.5;60.14037582
67;1;78;;;;;;-4.6;0;4.6;right;0;0.384005881;left;;;;;2;10;2016_Jan_07_1313;Flow_exo_pre;3.0.5;60.14037582
68;1;79;;;;;;4.6;90;4.6;right;1;0.300892777;right;;;;;2;10;2016_Jan_07_1313;Flow_exo_pre;3.0.5;60.14037582
69;1;79;;;;;;-4.6;0;-4.6;left;1;0.334392741;left;;;;;2;10;2016_Jan_07_1313;Flow_exo_pre;3.0.5;60.14037582
70;1;79;;;;;;4.6;90;4.6;right;1;0.483832583;right;;;;;2;10;2016_Jan_07_1313;Flow_exo_pre;3.0.5;60.14037582
;;;0;1;81;;;;0;-4.6;left;;;;180;1;0.400838789;left;2;10;2016_Jan_07_1313;Flow_exo_pre;3.0.5;60.14037582
;;;1;1;80;;;;90;4.6;right;;;;0;1;0.317884364;right;2;10;2016_Jan_07_1313;Flow_exo_pre;3.0.5;60.14037582
;;;2;1;79;;;;90;4.6;right;;;;180;0;0.267902346;left;2;10;2016_Jan_07_1313;Flow_exo_pre;3.0.5;60.14037582
;;;3;1;80;;;;0;4.6;right;;;;0;1;0.251138178;right;2;10;2016_Jan_07_1313;Flow_exo_pre;3.0.5;60.14037582
;;;4;1;80;;;;90;-4.6;left;;;;180;1;0.266564897;left;2;10;2016_Jan_07_1313;Flow_exo_pre;3.0.5;60.14037582
;;;5;1;80;;;;90;4.6;right;;;;180;1;0.434785487;right;2;10;2016_Jan_07_1313;Flow_exo_pre;3.0.5;60.14037582
;;;6;1;79;;;;90;-4.6;left;;;;180;1;0.318211696;left;2;10;2016_Jan_07_1313;Flow_exo_pre;3.0.5;60.14037582
;;;7;1;79;;;;0;-4.6;left;;;;180;1;0.317789623;left;2;10;2016_Jan_07_1313;Flow_exo_pre;3.0.5;60.14037582
;;;8;1;79;;;;90;4.6;right;;;;180;0;0.317743794;left;2;10;2016_Jan_07_1313;Flow_exo_pre;3.0.5;60.14037582
;;;9;1;80;;;;90;-4.6;left;;;;0;0;0.350958132;right;2;10;2016_Jan_07_1313;Flow_exo_pre;3.0.5;60.14037582
;;;10;1;81;;;;0;-4.6;left;;;;0;0;0.334125242;right;2;10;2016_Jan_07_1313;Flow_exo_pre;3.0.5;60.14037582
;;;11;1;82;;;;0;-4.6;left;;;;180;1;0.351615828;left;2;10;2016_Jan_07_1313;Flow_exo_pre;3.0.5;60.14037582
;;;12;1;82;;;;90;-4.6;left;;;;180;1;0.301016389;left;2;10;2016_Jan_07_1313;Flow_exo_pre;3.0.5;60.14037582
;;;13;1;82;;;;0;4.6;right;;;;180;0;0.351608816;left;2;10;2016_Jan_07_1313;Flow_exo_pre;3.0.5;60.14037582
;;;14;1;83;;;;0;-4.6;left;;;;180;1;0.284420429;left;2;10;2016_Jan_07_1313;Flow_exo_pre;3.0.5;60.14037582
;;;15;1;83;;;;90;4.6;right;;;;0;1;0.267833366;right;2;10;2016_Jan_07_1313;Flow_exo_pre;3.0.5;60.14037582
;;;16;1;83;;;;0;-4.6;left;;;;0;0;0.334179977;right;2;10;2016_Jan_07_1313;Flow_exo_pre;3.0.5;60.14037582
;;;17;1;84;;;;90;-4.6;left;;;;180;1;0.284425843;left;2;10;2016_Jan_07_1313;Flow_exo_pre;3.0.5;60.14037582
;;;18;1;84;;;;0;-4.6;left;;;;180;1;0.234592495;left;2;10;2016_Jan_07_1313;Flow_exo_pre;3.0.5;60.14037582
;;;19;1;84;;;;0;-4.6;left;;;;0;0;0.350992968;right;2;10;2016_Jan_07_1313;Flow_exo_pre;3.0.5;60.14037582
;;;20;1;85;;;;0;-4.6;left;;;;180;1;0.284337616;left;2;10;2016_Jan_07_1313;Flow_exo_pre;3.0.5;60.14037582
;;;21;1;85;;;;0;4.6;right;;;;0;1;0.284454995;right;2;10;2016_Jan_07_1313;Flow_exo_pre;3.0.5;60.14037582
;;;22;1;85;;;;90;-4.6;left;;;;180;1;0.317689787;left;2;10;2016_Jan_07_1313;Flow_exo_pre;3.0.5;60.14037582
;;;23;1;84;;;;0;4.6;right;;;;180;0;0.317475168;left;2;10;2016_Jan_07_1313;Flow_exo_pre;3.0.5;60.14037582
;;;24;1;85;;;;90;-4.6;left;;;;180;1;0.316447894;left;2;10;2016_Jan_07_1313;Flow_exo_pre;3.0.5;60.14037582
;;;25;1;85;;;;0;4.6;right;;;;180;0;0.301300394;left;2;10;2016_Jan_07_1313;Flow_exo_pre;3.0.5;60.14037582
;;;26;1;86;;;;90;4.6;right;;;;0;1;0.301017063;right;2;10;2016_Jan_07_1313;Flow_exo_pre;3.0.5;60.14037582
;;;27;1;86;;;;90;4.6;right;;;;180;0;0.284480308;left;2;10;2016_Jan_07_1313;Flow_exo_pre;3.0.5;60.14037582
;;;28;1;87;;;;90;-4.6;left;;;;0;0;0.317747732;right;2;10;2016_Jan_07_1313;Flow_exo_pre;3.0.5;60.14037582
;;;29;1;88;;;;0;-4.6;left;;;;0;0;0.483769619;right;2;10;2016_Jan_07_1313;Flow_exo_pre;3.0.5;60.14037582
;;;30;1;89;;;;90;-4.6;left;;;;0;0;0.349660607;right;2;10;2016_Jan_07_1313;Flow_exo_pre;3.0.5;60.14037582
;;;31;1;90;;;;90;4.6;right;;;;0;1;0.383075271;right;2;10;2016_Jan_07_1313;Flow_exo_pre;3.0.5;60.14037582
;;;32;1;90;;;;90;4.6;right;;;;180;0;0.34970025;left;2;10;2016_Jan_07_1313;Flow_exo_pre;3.0.5;60.14037582
;;;33;1;91;;;;90;-4.6;left;;;;0;0;0.334336752;right;2;10;2016_Jan_07_1313;Flow_exo_pre;3.0.5;60.14037582
;;;34;1;92;;;;90;4.6;right;;;;0;1;0.30108971;right;2;10;2016_Jan_07_1313;Flow_exo_pre;3.0.5;60.14037582
;;;35;1;92;;;;90;4.6;right;;;;180;1;0.266578898;right;2;10;2016_Jan_07_1313;Flow_exo_pre;3.0.5;60.14037582
;;;36;1;92;;;;90;-4.6;left;;;;180;1;1.095793367;left;2;10;2016_Jan_07_1313;Flow_exo_pre;3.0.5;60.14037582
;;;37;1;91;;;;0;-4.6;left;;;;0;1;1.095752234;left;2;10;2016_Jan_07_1313;Flow_exo_pre;3.0.5;60.14037582
;;;38;1;91;;;;90;-4.6;left;;;;180;1;0.334920488;left;2;10;2016_Jan_07_1313;Flow_exo_pre;3.0.5;60.14037582
;;;39;1;91;;;;90;4.6;right;;;;0;1;0.23465034;right;2;10;2016_Jan_07_1313;Flow_exo_pre;3.0.5;60.14037582
;;;40;1;90;;;;0;4.6;right;;;;0;1;0.334357353;right;2;10;2016_Jan_07_1313;Flow_exo_pre;3.0.5;60.14037582
;;;41;1;90;;;;90;4.6;right;;;;180;0;0.367483257;left;2;10;2016_Jan_07_1313;Flow_exo_pre;3.0.5;60.14037582
;;;42;1;91;;;;90;-4.6;left;;;;180;1;0.317846909;left;2;10;2016_Jan_07_1313;Flow_exo_pre;3.0.5;60.14037582
;;;43;1;91;;;;0;4.6;right;;;;0;1;0.301134958;right;2;10;2016_Jan_07_1313;Flow_exo_pre;3.0.5;60.14037582
;;;44;1;91;;;;90;-4.6;left;;;;180;0;0.334363814;right;2;10;2016_Jan_07_1313;Flow_exo_pre;3.0.5;60.14037582
;;;45;1;92;;;;90;-4.6;left;;;;180;1;1.09459883;left;2;10;2016_Jan_07_1313;Flow_exo_pre;3.0.5;60.14037582
;;;46;1;92;;;;0;-4.6;left;;;;0;0;1.095758101;right;2;10;2016_Jan_07_1313;Flow_exo_pre;3.0.5;60.14037582
;;;47;1;93;;;;90;4.6;right;;;;0;1;1.095847826;right;2;10;2016_Jan_07_1313;Flow_exo_pre;3.0.5;60.14037582
;;;48;1;93;;;;0;-4.6;left;;;;180;0;1.095764198;right;2;10;2016_Jan_07_1313;Flow_exo_pre;3.0.5;60.14037582
;;;49;1;94;;;;90;4.6;right;;;;180;0;1.095685059;left;2;10;2016_Jan_07_1313;Flow_exo_pre;3.0.5;60.14037582
;;;50;1;95;;;;0;4.6;right;;;;180;0;1.096161825;left;2;10;2016_Jan_07_1313;Flow_exo_pre;3.0.5;60.14037582
;;;51;1;96;;;;90;-4.6;left;;;;0;1;1.095793667;left;2;10;2016_Jan_07_1313;Flow_exo_pre;3.0.5;60.14037582
;;;52;1;96;;;;90;-4.6;left;;;;180;0;1.095748633;right;2;10;2016_Jan_07_1313;Flow_exo_pre;3.0.5;60.14037582
;;;53;1;97;;;;90;4.6;right;;;;0;0;1.095825682;left;2;10;2016_Jan_07_1313;Flow_exo_pre;3.0.5;60.14037582
;;;54;1;98;;;;0;-4.6;left;;;;180;0;1.095784065;right;2;10;2016_Jan_07_1313;Flow_exo_pre;3.0.5;60.14037582
;;;55;1;99;;;;90;4.6;right;;;;0;0;1.09578403;left;2;10;2016_Jan_07_1313;Flow_exo_pre;3.0.5;60.14037582
;;;56;1;100;;;;90;-4.6;left;;;;180;0;1.095732367;right;2;10;2016_Jan_07_1313;Flow_exo_pre;3.0.5;60.14037582
;;;57;1;101;;;;0;4.6;right;;;;0;0;1.095789914;left;2;10;2016_Jan_07_1313;Flow_exo_pre;3.0.5;60.14037582
;;;58;1;102;;;;90;4.6;right;;;;180;1;1.095872032;right;2;10;2016_Jan_07_1313;Flow_exo_pre;3.0.5;60.14037582
;;;59;1;102;;;;90;4.6;right;;;;180;0;1.095752973;left;2;10;2016_Jan_07_1313;Flow_exo_pre;3.0.5;60.14037582
;;;60;1;103;;;;90;-4.6;left;;;;180;1;1.095780301;left;2;10;2016_Jan_07_1313;Flow_exo_pre;3.0.5;60.14037582
;;;61;1;103;;;;0;4.6;right;;;;0;0;1.095832359;left;2;10;2016_Jan_07_1313;Flow_exo_pre;3.0.5;60.14037582
;;;62;1;104;;;;0;4.6;right;;;;180;1;1.095775472;right;2;10;2016_Jan_07_1313;Flow_exo_pre;3.0.5;60.14037582
;;;63;1;104;;;;0;4.6;right;;;;0;0;1.095802189;left;2;10;2016_Jan_07_1313;Flow_exo_pre;3.0.5;60.14037582
;;;64;1;105;;;;90;-4.6;left;;;;0;0;1.095363075;right;2;10;2016_Jan_07_1313;Flow_exo_pre;3.0.5;60.14037582
;;;65;1;106;;;;90;4.6;right;;;;180;1;1.095833681;right;2;10;2016_Jan_07_1313;Flow_exo_pre;3.0.5;60.14037582
;;;66;1;106;;;;0;-4.6;left;;;;180;1;1.095760336;left;2;10;2016_Jan_07_1313;Flow_exo_pre;3.0.5;60.14037582
;;;67;1;106;;;;90;-4.6;left;;;;0;1;1.095836;left;2;10;2016_Jan_07_1313;Flow_exo_pre;3.0.5;60.14037582
;;;68;1;105;;;;90;4.6;right;;;;180;1;1.095764846;right;2;10;2016_Jan_07_1313;Flow_exo_pre;3.0.5;60.14037582
;;;69;1;105;;;;0;4.6;right;;;;0;0;1.095811372;left;2;10;2016_Jan_07_1313;Flow_exo_pre;3.0.5;60.14037582
;;;70;1;106;;;;0;-4.6;left;;;;180;0;1.095796511;right;2;10;2016_Jan_07_1313;Flow_exo_pre;3.0.5;60.14037582
;;;71;1;107;;;;0;4.6;right;;;;180;0;1.095841344;left;2;10;2016_Jan_07_1313;Flow_exo_pre;3.0.5;60.14037582
;;;72;1;108;;;;0;-4.6;left;;;;0;1;1.095788263;left;2;10;2016_Jan_07_1313;Flow_exo_pre;3.0.5;60.14037582
;;;73;1;108;;;;0;4.6;right;;;;180;1;1.095768429;right;2;10;2016_Jan_07_1313;Flow_exo_pre;3.0.5;60.14037582
;;;74;1;108;;;;0;-4.6;left;;;;0;1;1.095821539;left;2;10;2016_Jan_07_1313;Flow_exo_pre;3.0.5;60.14037582
;;;75;1;107;;;;90;-4.6;left;;;;180;0;1.095781145;right;2;10;2016_Jan_07_1313;Flow_exo_pre;3.0.5;60.14037582
;;;76;1;108;;;;90;-4.6;left;;;;0;1;1.095809282;left;2;10;2016_Jan_07_1313;Flow_exo_pre;3.0.5;60.14037582
;;;77;1;108;;;;0;4.6;right;;;;0;1;1.095818577;right;2;10;2016_Jan_07_1313;Flow_exo_pre;3.0.5;60.14037582
;;;78;1;108;;;;90;-4.6;left;;;;180;0;1.095790702;right;2;10;2016_Jan_07_1313;Flow_exo_pre;3.0.5;60.14037582
;;;79;1;109;;;;90;-4.6;left;;;;0;1;1.095799888;left;2;10;2016_Jan_07_1313;Flow_exo_pre;3.0.5;60.14037582
;;;80;1;109;;;;0;4.6;right;;;;180;1;1.095776861;right;2;10;2016_Jan_07_1313;Flow_exo_pre;3.0.5;60.14037582
;;;81;1;109;;;;90;4.6;right;;;;180;0;1.095774581;left;2;10;2016_Jan_07_1313;Flow_exo_pre;3.0.5;60.14037582
;;;82;1;110;;;;0;-4.6;left;;;;180;1;1.095851199;left;2;10;2016_Jan_07_1313;Flow_exo_pre;3.0.5;60.14037582
;;;83;1;110;;;;90;-4.6;left;;;;180;1;1.095781077;left;2;10;2016_Jan_07_1313;Flow_exo_pre;3.0.5;60.14037582
;;;84;1;110;;;;0;4.6;right;;;;180;0;1.095792049;left;2;10;2016_Jan_07_1313;Flow_exo_pre;3.0.5;60.14037582
;;;85;1;111;;;;0;4.6;right;;;;0;0;1.095799881;left;2;10;2016_Jan_07_1313;Flow_exo_pre;3.0.5;60.14037582
;;;86;1;112;;;;0;-4.6;left;;;;0;0;1.095780462;right;2;10;2016_Jan_07_1313;Flow_exo_pre;3.0.5;60.14037582
;;;87;1;113;;;;0;4.6;right;;;;180;1;1.095772107;right;2;10;2016_Jan_07_1313;Flow_exo_pre;3.0.5;60.14037582
;;;88;1;113;;;;0;-4.6;left;;;;0;1;1.09578733;left;2;10;2016_Jan_07_1313;Flow_exo_pre;3.0.5;60.14037582
;;;89;1;113;;;;0;-4.6;left;;;;0;0;1.095780454;right;2;10;2016_Jan_07_1313;Flow_exo_pre;3.0.5;60.14037582
;;;90;1;114;;;;90;-4.6;left;;;;0;0;1.095766503;right;2;10;2016_Jan_07_1313;Flow_exo_pre;3.0.5;60.14037582
;;;91;1;115;;;;0;-4.6;left;;;;0;0;1.095817344;right;2;10;2016_Jan_07_1313;Flow_exo_pre;3.0.5;60.14037582
;;;92;1;116;;;;90;-4.6;left;;;;0;1;1.095765214;left;2;10;2016_Jan_07_1313;Flow_exo_pre;3.0.5;60.14037582
;;;93;1;116;;;;90;-4.6;left;;;;0;0;1.095814793;right;2;10;2016_Jan_07_1313;Flow_exo_pre;3.0.5;60.14037582
;;;94;1;117;;;;0;4.6;right;;;;180;1;1.095810118;right;2;10;2016_Jan_07_1313;Flow_exo_pre;3.0.5;60.14037582
;;;95;1;117;;;;0;4.6;right;;;;180;0;1.095844944;left;2;10;2016_Jan_07_1313;Flow_exo_pre;3.0.5;60.14037582
;;;96;1;118;;;;90;4.6;right;;;;0;0;1.095759721;left;2;10;2016_Jan_07_1313;Flow_exo_pre;3.0.5;60.14037582
;;;97;1;119;;;;90;-4.6;left;;;;180;0;1.095811234;right;2;10;2016_Jan_07_1313;Flow_exo_pre;3.0.5;60.14037582
;;;98;1;120;;;;0;4.6;right;;;;180;0;1.095762555;left;2;10;2016_Jan_07_1313;Flow_exo_pre;3.0.5;60.14037582
;;;99;1;121;;;;90;4.6;right;;;;180;1;1.095276085;right;2;10;2016_Jan_07_1313;Flow_exo_pre;3.0.5;60.14037582
;;;100;1;121;;;;0;4.6;right;;;;180;0;1.096591096;left;2;10;2016_Jan_07_1313;Flow_exo_pre;3.0.5;60.14037582
;;;101;1;122;;;;0;-4.6;left;;;;0;1;1.095772705;left;2;10;2016_Jan_07_1313;Flow_exo_pre;3.0.5;60.14037582
;;;102;1;122;;;;90;-4.6;left;;;;180;0;1.095781132;right;2;10;2016_Jan_07_1313;Flow_exo_pre;3.0.5;60.14037582
;;;103;1;123;;;;90;4.6;right;;;;180;0;1.095830245;left;2;10;2016_Jan_07_1313;Flow_exo_pre;3.0.5;60.14037582
;;;104;1;124;;;;90;4.6;right;;;;180;0;1.095792395;left;2;10;2016_Jan_07_1313;Flow_exo_pre;3.0.5;60.14037582
;;;105;1;125;;;;90;-4.6;left;;;;180;1;1.095759829;left;2;10;2016_Jan_07_1313;Flow_exo_pre;3.0.5;60.14037582
;;;106;1;125;;;;0;4.6;right;;;;180;0;1.095832631;left;2;10;2016_Jan_07_1313;Flow_exo_pre;3.0.5;60.14037582
;;;107;1;126;;;;0;4.6;right;;;;180;0;1.095718446;left;2;10;2016_Jan_07_1313;Flow_exo_pre;3.0.5;60.14037582
;;;108;1;127;;;;0;-4.6;left;;;;0;1;1.09584157;left;2;10;2016_Jan_07_1313;Flow_exo_pre;3.0.5;60.14037582
;;;109;1;127;;;;0;-4.6;left;;;;180;0;1.095779344;right;2;10;2016_Jan_07_1313;Flow_exo_pre;3.0.5;60.14037582
;;;110;1;128;;;;90;-4.6;left;;;;180;1;1.095815643;left;2;10;2016_Jan_07_1313;Flow_exo_pre;3.0.5;60.14037582
;;;111;1;128;;;;90;4.6;right;;;;180;0;1.095729916;left;2;10;2016_Jan_07_1313;Flow_exo_pre;3.0.5;60.14037582
;;;112;1;129;;;;90;-4.6;left;;;;180;1;1.095820252;left;2;10;2016_Jan_07_1313;Flow_exo_pre;3.0.5;60.14037582
;;;113;1;129;;;;0;4.6;right;;;;180;0;1.095792689;left;2;10;2016_Jan_07_1313;Flow_exo_pre;3.0.5;60.14037582
;;;114;1;130;;;;0;-4.6;left;;;;180;1;1.09577513;left;2;10;2016_Jan_07_1313;Flow_exo_pre;3.0.5;60.14037582
;;;115;1;130;;;;0;4.6;right;;;;180;0;1.09581634;left;2;10;2016_Jan_07_1313;Flow_exo_pre;3.0.5;60.14037582
;;;116;1;131;;;;0;4.6;right;;;;180;0;1.095760514;left;2;10;2016_Jan_07_1313;Flow_exo_pre;3.0.5;60.14037582
;;;117;1;132;;;;90;4.6;right;;;;180;0;1.095757563;left;2;10;2016_Jan_07_1313;Flow_exo_pre;3.0.5;60.14037582
;;;118;1;133;;;;90;4.6;right;;;;0;0;1.095821184;left;2;10;2016_Jan_07_1313;Flow_exo_pre;3.0.5;60.14037582
;;;119;1;134;;;;0;4.6;right;;;;0;0;1.09591736;left;2;10;2016_Jan_07_1313;Flow_exo_pre;3.0.5;60.14037582
;;;120;1;135;;;;0;-4.6;left;;;;0;0;1.095698125;right;2;10;2016_Jan_07_1313;Flow_exo_pre;3.0.5;60.14037582
;;;121;1;136;;;;0;4.6;right;;;;180;1;1.095743388;right;2;10;2016_Jan_07_1313;Flow_exo_pre;3.0.5;60.14037582
;;;122;1;136;;;;90;4.6;right;;;;0;0;1.095863602;left;2;10;2016_Jan_07_1313;Flow_exo_pre;3.0.5;60.14037582
;;;123;1;137;;;;0;-4.6;left;;;;180;0;1.095759262;right;2;10;2016_Jan_07_1313;Flow_exo_pre;3.0.5;60.14037582
;;;124;1;138;;;;0;-4.6;left;;;;0;1;1.095755447;left;2;10;2016_Jan_07_1313;Flow_exo_pre;3.0.5;60.14037582
;;;125;1;138;;;;90;4.6;right;;;;0;1;1.095784731;right;2;10;2016_Jan_07_1313;Flow_exo_pre;3.0.5;60.14037582
;;;126;1;138;;;;0;4.6;right;;;;0;1;1.095820182;right;2;10;2016_Jan_07_1313;Flow_exo_pre;3.0.5;60.14037582
;;;127;1;137;;;;0;4.6;right;;;;0;1;1.095830088;right;2;10;2016_Jan_07_1313;Flow_exo_pre;3.0.5;60.14037582
;;;128;1;137;;;;90;4.6;right;;;;0;1;1.095758971;right;2;10;2016_Jan_07_1313;Flow_exo_pre;3.0.5;60.14037582
;;;129;1;137;;;;0;-4.6;left;;;;0;0;1.095817513;right;2;10;2016_Jan_07_1313;Flow_exo_pre;3.0.5;60.14037582
;;;130;1;138;;;;0;4.6;right;;;;180;1;1.095803556;right;2;10;2016_Jan_07_1313;Flow_exo_pre;3.0.5;60.14037582
;;;131;1;138;;;;90;4.6;right;;;;0;0;1.095801783;left;2;10;2016_Jan_07_1313;Flow_exo_pre;3.0.5;60.14037582
;;;132;1;139;;;;90;-4.6;left;;;;180;0;1.095736135;right;2;10;2016_Jan_07_1313;Flow_exo_pre;3.0.5;60.14037582
;;;133;1;140;;;;0;4.6;right;;;;180;0;1.095900006;left;2;10;2016_Jan_07_1313;Flow_exo_pre;3.0.5;60.14037582
;;;134;1;141;;;;90;-4.6;left;;;;180;1;1.09561381;left;2;10;2016_Jan_07_1313;Flow_exo_pre;3.0.5;60.14037582
;;;135;1;141;;;;0;4.6;right;;;;180;0;1.095801789;left;2;10;2016_Jan_07_1313;Flow_exo_pre;3.0.5;60.14037582
;;;136;1;142;;;;90;4.6;right;;;;0;0;1.095784154;left;2;10;2016_Jan_07_1313;Flow_exo_pre;3.0.5;60.14037582
;;;137;1;143;;;;0;-4.6;left;;;;0;0;1.095761475;right;2;10;2016_Jan_07_1313;Flow_exo_pre;3.0.5;60.14037582
;;;138;1;144;;;;0;4.6;right;;;;0;1;1.095817118;right;2;10;2016_Jan_07_1313;Flow_exo_pre;3.0.5;60.14037582
;;;139;1;144;;;;0;-4.6;left;;;;0;0;1.09576056;right;2;10;2016_Jan_07_1313;Flow_exo_pre;3.0.5;60.14037582
;;;140;1;145;;;;0;4.6;right;;;;0;1;1.095833769;right;2;10;2016_Jan_07_1313;Flow_exo_pre;3.0.5;60.14037582
;;;141;1;145;;;;90;4.6;right;;;;180;1;1.095810764;right;2;10;2016_Jan_07_1313;Flow_exo_pre;3.0.5;60.14037582
;;;142;1;145;;;;0;-4.6;left;;;;180;0;1.095746827;right;2;10;2016_Jan_07_1313;Flow_exo_pre;3.0.5;60.14037582
;;;143;1;146;;;;0;4.6;right;;;;0;0;1.095806837;left;2;10;2016_Jan_07_1313;Flow_exo_pre;3.0.5;60.14037582
;;;144;1;147;;;;90;-4.6;left;;;;0;0;1.095741575;right;2;10;2016_Jan_07_1313;Flow_exo_pre;3.0.5;60.14037582
;;;145;1;148;;;;90;4.6;right;;;;180;1;1.095843156;right;2;10;2016_Jan_07_1313;Flow_exo_pre;3.0.5;60.14037582
;;;146;1;148;;;;0;-4.6;left;;;;0;1;1.095802901;left;2;10;2016_Jan_07_1313;Flow_exo_pre;3.0.5;60.14037582
;;;147;1;148;;;;0;4.6;right;;;;180;1;1.095772342;right;2;10;2016_Jan_07_1313;Flow_exo_pre;3.0.5;60.14037582
