Questions,Stair.thisTrialN,Stair.stepSize,Stair.intensity,Stair2.thisTrialN,Stair2.stepSize,Stair2.intensity,controlQ.thisRepN,controlQ.thisTrialN,controlQ.thisN,controlQ.thisIndex,Qs.thisRepN,Qs.thisTrialN,Qs.thisN,Qs.thisIndex,cueOri,targetXOri,targetXPos,CorrectAns,Stair.response,keyPress.rt,keyPress.rl,cueExoPos,Stair2.response,keyPress_2.rt,keyPress_2.rl,key_start.keys,key_start.rt,Quest_Ans.response,Quest_Ans.rt,Session,Participant,date,expName,psychopyVersion,frameRate,
,0,1,81,,,,,,,,,,,,0,0,-4.6,left,1,0.9199534,left,,,,,,,,,1,151,2019_Apr_03_1600,Flow_endo_post,3.0.5,59.92864898,
,1,1,80,,,,,,,,,,,,180,0,-4.6,left,1,0.668021,left,,,,,,,,,1,151,2019_Apr_03_1600,Flow_endo_post,3.0.5,59.92864898,
,2,1,79,,,,,,,,,,,,180,0,4.6,right,1,0.7188943,right,,,,,,,,,1,151,2019_Apr_03_1600,Flow_endo_post,3.0.5,59.92864898,
,3,1,78,,,,,,,,,,,,180,90,4.6,right,1,1.0016306,right,,,,,,,,,1,151,2019_Apr_03_1600,Flow_endo_post,3.0.5,59.92864898,
,4,1,77,,,,,,,,,,,,0,0,-4.6,left,1,0.5509526,left,,,,,,,,,1,151,2019_Apr_03_1600,Flow_endo_post,3.0.5,59.92864898,
,5,1,76,,,,,,,,,,,,180,0,4.6,right,1,0.6008121,right,,,,,,,,,1,151,2019_Apr_03_1600,Flow_endo_post,3.0.5,59.92864898,
,6,1,75,,,,,,,,,,,,0,0,4.6,right,1,0.6680794,right,,,,,,,,,1,151,2019_Apr_03_1600,Flow_endo_post,3.0.5,59.92864898,
,7,1,74,,,,,,,,,,,,0,0,4.6,right,1,0.6351912,right,,,,,,,,,1,151,2019_Apr_03_1600,Flow_endo_post,3.0.5,59.92864898,
,8,1,73,,,,,,,,,,,,180,0,4.6,right,0,0.7348501,left,,,,,,,,,1,151,2019_Apr_03_1600,Flow_endo_post,3.0.5,59.92864898,
,9,1,74,,,,,,,,,,,,0,0,4.6,right,1,0.6014353,right,,,,,,,,,1,151,2019_Apr_03_1600,Flow_endo_post,3.0.5,59.92864898,
,10,1,74,,,,,,,,,,,,180,90,-4.6,left,1,0.5679989,left,,,,,,,,,1,151,2019_Apr_03_1600,Flow_endo_post,3.0.5,59.92864898,
,11,1,74,,,,,,,,,,,,0,90,4.6,right,1,0.6840551,right,,,,,,,,,1,151,2019_Apr_03_1600,Flow_endo_post,3.0.5,59.92864898,
,12,1,73,,,,,,,,,,,,0,0,4.6,right,1,0.6186348,right,,,,,,,,,1,151,2019_Apr_03_1600,Flow_endo_post,3.0.5,59.92864898,
,13,1,73,,,,,,,,,,,,180,90,4.6,right,1,0.7853766,right,,,,,,,,,1,151,2019_Apr_03_1600,Flow_endo_post,3.0.5,59.92864898,
,14,1,73,,,,,,,,,,,,180,0,4.6,right,1,0.5352888,right,,,,,,,,,1,151,2019_Apr_03_1600,Flow_endo_post,3.0.5,59.92864898,
,15,1,72,,,,,,,,,,,,0,90,4.6,right,1,0.6181972,right,,,,,,,,,1,151,2019_Apr_03_1600,Flow_endo_post,3.0.5,59.92864898,
,16,1,72,,,,,,,,,,,,180,0,4.6,right,1,0.5350518,right,,,,,,,,,1,151,2019_Apr_03_1600,Flow_endo_post,3.0.5,59.92864898,
,17,1,72,,,,,,,,,,,,180,0,4.6,right,1,0.5520649,right,,,,,,,,,1,151,2019_Apr_03_1600,Flow_endo_post,3.0.5,59.92864898,
,18,1,71,,,,,,,,,,,,0,90,-4.6,left,1,0.7516234,left,,,,,,,,,1,151,2019_Apr_03_1600,Flow_endo_post,3.0.5,59.92864898,
,19,1,71,,,,,,,,,,,,180,90,-4.6,left,1,0.5505911,left,,,,,,,,,1,151,2019_Apr_03_1600,Flow_endo_post,3.0.5,59.92864898,
,20,1,71,,,,,,,,,,,,180,90,4.6,right,0,1.1690768,left,,,,,,,,,1,151,2019_Apr_03_1600,Flow_endo_post,3.0.5,59.92864898,
,21,1,72,,,,,,,,,,,,0,90,-4.6,left,1,2.0867608,left,,,,,,,,,1,151,2019_Apr_03_1600,Flow_endo_post,3.0.5,59.92864898,
,22,1,72,,,,,,,,,,,,180,0,-4.6,left,1,0.6020306,left,,,,,,,,,1,151,2019_Apr_03_1600,Flow_endo_post,3.0.5,59.92864898,
,23,1,72,,,,,,,,,,,,180,90,-4.6,left,1,1.1191549,left,,,,,,,,,1,151,2019_Apr_03_1600,Flow_endo_post,3.0.5,59.92864898,
,24,1,71,,,,,,,,,,,,180,90,4.6,right,0,0.8016984,left,,,,,,,,,1,151,2019_Apr_03_1600,Flow_endo_post,3.0.5,59.92864898,
,25,1,72,,,,,,,,,,,,180,90,4.6,right,1,1.0021678,right,,,,,,,,,1,151,2019_Apr_03_1600,Flow_endo_post,3.0.5,59.92864898,
,26,1,72,,,,,,,,,,,,0,0,-4.6,left,0,1.4006463,right,,,,,,,,,1,151,2019_Apr_03_1600,Flow_endo_post,3.0.5,59.92864898,
,27,1,73,,,,,,,,,,,,180,0,4.6,right,1,0.5344773,right,,,,,,,,,1,151,2019_Apr_03_1600,Flow_endo_post,3.0.5,59.92864898,
,28,1,73,,,,,,,,,,,,180,90,-4.6,left,1,0.5018201,left,,,,,,,,,1,151,2019_Apr_03_1600,Flow_endo_post,3.0.5,59.92864898,
,29,1,73,,,,,,,,,,,,0,0,4.6,right,1,0.5185414,right,,,,,,,,,1,151,2019_Apr_03_1600,Flow_endo_post,3.0.5,59.92864898,
,30,1,72,,,,,,,,,,,,0,90,4.6,right,1,0.5185202,right,,,,,,,,,1,151,2019_Apr_03_1600,Flow_endo_post,3.0.5,59.92864898,
,31,1,72,,,,,,,,,,,,180,90,4.6,right,1,0.5344904,right,,,,,,,,,1,151,2019_Apr_03_1600,Flow_endo_post,3.0.5,59.92864898,
,32,1,72,,,,,,,,,,,,0,90,-4.6,left,0,0.6348047,right,,,,,,,,,1,151,2019_Apr_03_1600,Flow_endo_post,3.0.5,59.92864898,
,33,1,73,,,,,,,,,,,,180,90,-4.6,left,1,0.551923,left,,,,,,,,,1,151,2019_Apr_03_1600,Flow_endo_post,3.0.5,59.92864898,
,34,1,73,,,,,,,,,,,,180,0,-4.6,left,1,0.5682348,left,,,,,,,,,1,151,2019_Apr_03_1600,Flow_endo_post,3.0.5,59.92864898,
,35,1,73,,,,,,,,,,,,180,0,4.6,right,1,0.5517223,right,,,,,,,,,1,151,2019_Apr_03_1600,Flow_endo_post,3.0.5,59.92864898,
,36,1,72,,,,,,,,,,,,180,0,-4.6,left,0,1.152438,right,,,,,,,,,1,151,2019_Apr_03_1600,Flow_endo_post,3.0.5,59.92864898,
,37,1,73,,,,,,,,,,,,180,0,4.6,right,1,0.5020063,right,,,,,,,,,1,151,2019_Apr_03_1600,Flow_endo_post,3.0.5,59.92864898,
,38,1,73,,,,,,,,,,,,180,0,4.6,right,1,0.5678949,right,,,,,,,,,1,151,2019_Apr_03_1600,Flow_endo_post,3.0.5,59.92864898,
,39,1,73,,,,,,,,,,,,0,0,4.6,right,1,0.4521458,right,,,,,,,,,1,151,2019_Apr_03_1600,Flow_endo_post,3.0.5,59.92864898,
,40,1,72,,,,,,,,,,,,0,90,-4.6,left,0,0.6844664,right,,,,,,,,,1,151,2019_Apr_03_1600,Flow_endo_post,3.0.5,59.92864898,
,41,1,73,,,,,,,,,,,,180,0,-4.6,left,1,0.6350826,left,,,,,,,,,1,151,2019_Apr_03_1600,Flow_endo_post,3.0.5,59.92864898,
,42,1,73,,,,,,,,,,,,180,0,-4.6,left,1,0.451066,left,,,,,,,,,1,151,2019_Apr_03_1600,Flow_endo_post,3.0.5,59.92864898,
,43,1,73,,,,,,,,,,,,0,90,4.6,right,1,0.434315,right,,,,,,,,,1,151,2019_Apr_03_1600,Flow_endo_post,3.0.5,59.92864898,
,44,1,72,,,,,,,,,,,,180,0,4.6,right,1,0.5678282,right,,,,,,,,,1,151,2019_Apr_03_1600,Flow_endo_post,3.0.5,59.92864898,
,45,1,72,,,,,,,,,,,,0,90,4.6,right,1,0.4349115,right,,,,,,,,,1,151,2019_Apr_03_1600,Flow_endo_post,3.0.5,59.92864898,
,46,1,72,,,,,,,,,,,,0,0,4.6,right,1,0.5181935,right,,,,,,,,,1,151,2019_Apr_03_1600,Flow_endo_post,3.0.5,59.92864898,
,47,1,71,,,,,,,,,,,,180,90,-4.6,left,1,0.4843389,left,,,,,,,,,1,151,2019_Apr_03_1600,Flow_endo_post,3.0.5,59.92864898,
,48,1,71,,,,,,,,,,,,180,0,4.6,right,1,0.5177595,right,,,,,,,,,1,151,2019_Apr_03_1600,Flow_endo_post,3.0.5,59.92864898,
,49,1,71,,,,,,,,,,,,180,0,-4.6,left,1,0.4683279,left,,,,,,,,,1,151,2019_Apr_03_1600,Flow_endo_post,3.0.5,59.92864898,
,50,1,70,,,,,,,,,,,,180,0,-4.6,left,1,0.4846622,left,,,,,,,,,1,151,2019_Apr_03_1600,Flow_endo_post,3.0.5,59.92864898,
,51,1,70,,,,,,,,,,,,0,90,-4.6,left,0,0.6010755,right,,,,,,,,,1,151,2019_Apr_03_1600,Flow_endo_post,3.0.5,59.92864898,
,52,1,71,,,,,,,,,,,,0,90,4.6,right,1,0.5349975,right,,,,,,,,,1,151,2019_Apr_03_1600,Flow_endo_post,3.0.5,59.92864898,
,53,1,71,,,,,,,,,,,,0,90,4.6,right,1,0.6183425,right,,,,,,,,,1,151,2019_Apr_03_1600,Flow_endo_post,3.0.5,59.92864898,
,54,1,71,,,,,,,,,,,,180,90,-4.6,left,1,0.5506521,left,,,,,,,,,1,151,2019_Apr_03_1600,Flow_endo_post,3.0.5,59.92864898,
,,,,0,1,81,,,,,,,,,,90,4.6,right,,,,-4.6,1,0.8012373,right,,,,,1,151,2019_Apr_03_1600,Flow_endo_post,3.0.5,59.92864898,
,,,,1,1,80,,,,,,,,,,0,4.6,right,,,,4.6,1,0.6182944,right,,,,,1,151,2019_Apr_03_1600,Flow_endo_post,3.0.5,59.92864898,
,,,,2,1,79,,,,,,,,,,90,-4.6,left,,,,-4.6,1,0.6690717,left,,,,,1,151,2019_Apr_03_1600,Flow_endo_post,3.0.5,59.92864898,
,,,,3,1,78,,,,,,,,,,90,4.6,right,,,,-4.6,1,0.6679383,right,,,,,1,151,2019_Apr_03_1600,Flow_endo_post,3.0.5,59.92864898,
,,,,4,1,77,,,,,,,,,,90,4.6,right,,,,4.6,1,0.6180775,right,,,,,1,151,2019_Apr_03_1600,Flow_endo_post,3.0.5,59.92864898,
,,,,5,1,76,,,,,,,,,,90,4.6,right,,,,4.6,1,0.5846107,right,,,,,1,151,2019_Apr_03_1600,Flow_endo_post,3.0.5,59.92864898,
,,,,6,1,75,,,,,,,,,,0,4.6,right,,,,4.6,1,0.5851267,right,,,,,1,151,2019_Apr_03_1600,Flow_endo_post,3.0.5,59.92864898,
,,,,7,1,74,,,,,,,,,,0,4.6,right,,,,4.6,1,0.5684764,right,,,,,1,151,2019_Apr_03_1600,Flow_endo_post,3.0.5,59.92864898,
,,,,8,1,73,,,,,,,,,,90,4.6,right,,,,-4.6,1,0.7687483,right,,,,,1,151,2019_Apr_03_1600,Flow_endo_post,3.0.5,59.92864898,
,,,,9,1,72,,,,,,,,,,90,-4.6,left,,,,-4.6,1,0.6015741,left,,,,,1,151,2019_Apr_03_1600,Flow_endo_post,3.0.5,59.92864898,
,,,,10,1,71,,,,,,,,,,0,4.6,right,,,,-4.6,1,1.0842097,right,,,,,1,151,2019_Apr_03_1600,Flow_endo_post,3.0.5,59.92864898,
,,,,11,1,70,,,,,,,,,,0,-4.6,left,,,,-4.6,1,0.5490831,left,,,,,1,151,2019_Apr_03_1600,Flow_endo_post,3.0.5,59.92864898,
,,,,12,1,69,,,,,,,,,,0,-4.6,left,,,,4.6,0,0.68468,right,,,,,1,151,2019_Apr_03_1600,Flow_endo_post,3.0.5,59.92864898,
,,,,13,1,70,,,,,,,,,,90,-4.6,left,,,,-4.6,1,0.5684163,left,,,,,1,151,2019_Apr_03_1600,Flow_endo_post,3.0.5,59.92864898,
,,,,14,1,70,,,,,,,,,,90,-4.6,left,,,,4.6,1,0.7688231,left,,,,,1,151,2019_Apr_03_1600,Flow_endo_post,3.0.5,59.92864898,
,,,,15,1,70,,,,,,,,,,0,-4.6,left,,,,-4.6,1,0.485388,left,,,,,1,151,2019_Apr_03_1600,Flow_endo_post,3.0.5,59.92864898,
,,,,16,1,69,,,,,,,,,,90,-4.6,left,,,,-4.6,1,0.7033226,left,,,,,1,151,2019_Apr_03_1600,Flow_endo_post,3.0.5,59.92864898,
,,,,17,1,69,,,,,,,,,,90,-4.6,left,,,,4.6,0,0.6186118,right,,,,,1,151,2019_Apr_03_1600,Flow_endo_post,3.0.5,59.92864898,
,,,,18,1,70,,,,,,,,,,90,-4.6,left,,,,-4.6,1,0.6176657,left,,,,,1,151,2019_Apr_03_1600,Flow_endo_post,3.0.5,59.92864898,
,,,,19,1,70,,,,,,,,,,90,-4.6,left,,,,4.6,1,1.0523133,left,,,,,1,151,2019_Apr_03_1600,Flow_endo_post,3.0.5,59.92864898,
,,,,20,1,70,,,,,,,,,,90,4.6,right,,,,4.6,0,1.9863083,left,,,,,1,151,2019_Apr_03_1600,Flow_endo_post,3.0.5,59.92864898,
,,,,21,1,71,,,,,,,,,,0,-4.6,left,,,,4.6,0,0.8013788,right,,,,,1,151,2019_Apr_03_1600,Flow_endo_post,3.0.5,59.92864898,
,,,,22,1,72,,,,,,,,,,90,4.6,right,,,,4.6,1,0.5016207,right,,,,,1,151,2019_Apr_03_1600,Flow_endo_post,3.0.5,59.92864898,
,,,,23,1,72,,,,,,,,,,90,-4.6,left,,,,-4.6,1,0.7523109,left,,,,,1,151,2019_Apr_03_1600,Flow_endo_post,3.0.5,59.92864898,
,,,,24,1,72,,,,,,,,,,0,4.6,right,,,,-4.6,1,0.9671794,right,,,,,1,151,2019_Apr_03_1600,Flow_endo_post,3.0.5,59.92864898,
,,,,25,1,71,,,,,,,,,,90,4.6,right,,,,4.6,0,0.651782,left,,,,,1,151,2019_Apr_03_1600,Flow_endo_post,3.0.5,59.92864898,
,,,,26,1,72,,,,,,,,,,90,-4.6,left,,,,4.6,1,0.8344132,left,,,,,1,151,2019_Apr_03_1600,Flow_endo_post,3.0.5,59.92864898,
,,,,27,1,72,,,,,,,,,,0,-4.6,left,,,,4.6,1,0.5678998,left,,,,,1,151,2019_Apr_03_1600,Flow_endo_post,3.0.5,59.92864898,
,,,,28,1,72,,,,,,,,,,90,4.6,right,,,,4.6,1,0.5844241,right,,,,,1,151,2019_Apr_03_1600,Flow_endo_post,3.0.5,59.92864898,
,,,,29,1,71,,,,,,,,,,90,-4.6,left,,,,-4.6,1,0.5515226,left,,,,,1,151,2019_Apr_03_1600,Flow_endo_post,3.0.5,59.92864898,
,,,,30,1,71,,,,,,,,,,90,4.6,right,,,,-4.6,1,0.618147,right,,,,,1,151,2019_Apr_03_1600,Flow_endo_post,3.0.5,59.92864898,
,,,,31,1,71,,,,,,,,,,0,4.6,right,,,,-4.6,0,1.6192952,left,,,,,1,151,2019_Apr_03_1600,Flow_endo_post,3.0.5,59.92864898,
,,,,32,1,72,,,,,,,,,,0,-4.6,left,,,,4.6,0,1.0978893,right,,,,,1,151,2019_Apr_03_1600,Flow_endo_post,3.0.5,59.92864898,
,,,,33,1,73,,,,,,,,,,0,4.6,right,,,,4.6,1,0.8346911,right,,,,,1,151,2019_Apr_03_1600,Flow_endo_post,3.0.5,59.92864898,
,,,,34,1,73,,,,,,,,,,0,4.6,right,,,,-4.6,1,0.9681074,right,,,,,1,151,2019_Apr_03_1600,Flow_endo_post,3.0.5,59.92864898,
,,,,35,1,73,,,,,,,,,,0,4.6,right,,,,4.6,1,0.6186563,right,,,,,1,151,2019_Apr_03_1600,Flow_endo_post,3.0.5,59.92864898,
,,,,36,1,72,,,,,,,,,,0,-4.6,left,,,,4.6,1,0.6351225,left,,,,,1,151,2019_Apr_03_1600,Flow_endo_post,3.0.5,59.92864898,
,,,,37,1,72,,,,,,,,,,90,-4.6,left,,,,4.6,0,0.6852175,right,,,,,1,151,2019_Apr_03_1600,Flow_endo_post,3.0.5,59.92864898,
,,,,38,1,73,,,,,,,,,,0,4.6,right,,,,4.6,1,0.6518373,right,,,,,1,151,2019_Apr_03_1600,Flow_endo_post,3.0.5,59.92864898,
,,,,39,1,73,,,,,,,,,,90,-4.6,left,,,,-4.6,1,0.8684151,left,,,,,1,151,2019_Apr_03_1600,Flow_endo_post,3.0.5,59.92864898,
,,,,40,1,73,,,,,,,,,,90,4.6,right,,,,-4.6,1,0.5679328,right,,,,,1,151,2019_Apr_03_1600,Flow_endo_post,3.0.5,59.92864898,
,,,,41,1,72,,,,,,,,,,0,-4.6,left,,,,4.6,1,0.6854105,left,,,,,1,151,2019_Apr_03_1600,Flow_endo_post,3.0.5,59.92864898,
,,,,42,1,72,,,,,,,,,,0,-4.6,left,,,,4.6,1,0.7519428,left,,,,,1,151,2019_Apr_03_1600,Flow_endo_post,3.0.5,59.92864898,
,,,,43,1,72,,,,,,,,,,90,-4.6,left,,,,-4.6,1,0.8520081,left,,,,,1,151,2019_Apr_03_1600,Flow_endo_post,3.0.5,59.92864898,
,,,,44,1,71,,,,,,,,,,0,-4.6,left,,,,4.6,1,0.6527424,left,,,,,1,151,2019_Apr_03_1600,Flow_endo_post,3.0.5,59.92864898,
,,,,45,1,71,,,,,,,,,,0,4.6,right,,,,4.6,1,0.5515301,right,,,,,1,151,2019_Apr_03_1600,Flow_endo_post,3.0.5,59.92864898,
,,,,46,1,71,,,,,,,,,,90,-4.6,left,,,,-4.6,1,0.5024689,left,,,,,1,151,2019_Apr_03_1600,Flow_endo_post,3.0.5,59.92864898,
,,,,47,1,70,,,,,,,,,,90,-4.6,left,,,,-4.6,1,0.5679523,left,,,,,1,151,2019_Apr_03_1600,Flow_endo_post,3.0.5,59.92864898,
,,,,48,1,70,,,,,,,,,,0,-4.6,left,,,,-4.6,1,0.6347994,left,,,,,1,151,2019_Apr_03_1600,Flow_endo_post,3.0.5,59.92864898,
,,,,49,1,70,,,,,,,,,,0,4.6,right,,,,-4.6,0,0.5676504,left,,,,,1,151,2019_Apr_03_1600,Flow_endo_post,3.0.5,59.92864898,
,,,,50,1,71,,,,,,,,,,0,-4.6,left,,,,4.6,1,0.7018313,left,,,,,1,151,2019_Apr_03_1600,Flow_endo_post,3.0.5,59.92864898,
,,,,51,1,71,,,,,,,,,,90,-4.6,left,,,,-4.6,1,0.5851452,left,,,,,1,151,2019_Apr_03_1600,Flow_endo_post,3.0.5,59.92864898,
,,,,52,1,71,,,,,,,,,,90,-4.6,left,,,,-4.6,1,0.6358322,left,,,,,1,151,2019_Apr_03_1600,Flow_endo_post,3.0.5,59.92864898,
,,,,53,1,70,,,,,,,,,,90,4.6,right,,,,-4.6,0,0.7512865,left,,,,,1,151,2019_Apr_03_1600,Flow_endo_post,3.0.5,59.92864898,
,,,,54,1,71,,,,,,,,,,0,4.6,right,,,,-4.6,1,0.8189703,right,,,,,1,151,2019_Apr_03_1600,Flow_endo_post,3.0.5,59.92864898,
,,,,55,1,71,,,,,,,,,,90,4.6,right,,,,4.6,1,0.4673781,right,,,,,1,151,2019_Apr_03_1600,Flow_endo_post,3.0.5,59.92864898,
,,,,56,1,71,,,,,,,,,,90,-4.6,left,,,,4.6,1,0.8686893,left,,,,,1,151,2019_Apr_03_1600,Flow_endo_post,3.0.5,59.92864898,
,,,,,,,,,,,,,,,,,,,,,,,,,,space,7.4907323,,,1,151,2019_Apr_03_1600,Flow_endo_post,3.0.5,59.92864898,
My state (body feelings, emotions and thoughts) during the task on the computer was similar to the state I had during my music performance.,,,,,,,0,0,0,0,,,,,,,,,,,,,,,,,,3,18.983,1,151,2019_Apr_03_1600,Flow_endo_post,3.0.5,59.92864898
My attention was focused entirely on what I was doing.,,,,,,,,,,,0,0,0,3,,,,,,,,,,,,,,2,5.968,1,151,2019_Apr_03_1600,Flow_endo_post,3.0.5,59.92864898,
I felt that I had everything under control.,,,,,,,,,,,0,1,1,13,,,,,,,,,,,,,,2,5.895,1,151,2019_Apr_03_1600,Flow_endo_post,3.0.5,59.92864898,
I had total concentration.,,,,,,,,,,,0,2,2,5,,,,,,,,,,,,,,4,4.169,1,151,2019_Apr_03_1600,Flow_endo_post,3.0.5,59.92864898,
I was not concerned with how I was presenting myself.,,,,,,,,,,,0,3,3,15,,,,,,,,,,,,,,2,4.33,1,151,2019_Apr_03_1600,Flow_endo_post,3.0.5,59.92864898,
I had a good idea while I was performing about how well I was doing.,,,,,,,,,,,0,4,4,8,,,,,,,,,,,,,,2,2.952,1,151,2019_Apr_03_1600,Flow_endo_post,3.0.5,59.92864898,
I knew what I want to achieve.,,,,,,,,,,,0,5,5,1,,,,,,,,,,,,,,2,1.364,1,151,2019_Apr_03_1600,Flow_endo_post,3.0.5,59.92864898,
I felt as though I had everything under control.,,,,,,,,,,,0,6,6,12,,,,,,,,,,,,,,2,2.512,1,151,2019_Apr_03_1600,Flow_endo_post,3.0.5,59.92864898,
It was really clear to me how my performance was going.,,,,,,,,,,,0,7,7,7,,,,,,,,,,,,,,2,4.574,1,151,2019_Apr_03_1600,Flow_endo_post,3.0.5,59.92864898,
I had no difficulty concentrating.,,,,,,,,,,,0,8,8,6,,,,,,,,,,,,,,5,2.882,1,151,2019_Apr_03_1600,Flow_endo_post,3.0.5,59.92864898,
The challenge and my skills were at an equally high level.,,,,,,,,,,,0,9,9,10,,,,,,,,,,,,,,2,5.373,1,151,2019_Apr_03_1600,Flow_endo_post,3.0.5,59.92864898,
I had a strong sense of what I wanted to accomplish.,,,,,,,,,,,0,10,10,0,,,,,,,,,,,,,,2,5.313,1,151,2019_Apr_03_1600,Flow_endo_post,3.0.5,59.92864898,
I was not concerned with how others might be evaluating me.,,,,,,,,,,,0,11,11,14,,,,,,,,,,,,,,4,2.939,1,151,2019_Apr_03_1600,Flow_endo_post,3.0.5,59.92864898,
I felt just the right amount of challenge. ,,,,,,,,,,,0,12,12,11,,,,,,,,,,,,,,2,2.857,1,151,2019_Apr_03_1600,Flow_endo_post,3.0.5,59.92864898,
The way time passed seemed to be different from normal.,,,,,,,,,,,0,13,13,24,,,,,,,,,,,,,,2,6.396,1,151,2019_Apr_03_1600,Flow_endo_post,3.0.5,59.92864898,
Time seemed to alter (either slows down or speeds up).,,,,,,,,,,,0,14,14,23,,,,,,,,,,,,,,2,3.934,1,151,2019_Apr_03_1600,Flow_endo_post,3.0.5,59.92864898,
I was not worried about what others might be thinking of me.,,,,,,,,,,,0,15,15,16,,,,,,,,,,,,,,2,5.826,1,151,2019_Apr_03_1600,Flow_endo_post,3.0.5,59.92864898,
It was no effort to keep my mind on what was happening.,,,,,,,,,,,0,16,16,4,,,,,,,,,,,,,,4,11.836,1,151,2019_Apr_03_1600,Flow_endo_post,3.0.5,59.92864898,
My goals were clearly defined. ,,,,,,,,,,,0,17,17,2,,,,,,,,,,,,,,2,2.682,1,151,2019_Apr_03_1600,Flow_endo_post,3.0.5,59.92864898,
I really enjoyed the experience.,,,,,,,,,,,0,18,18,17,,,,,,,,,,,,,,5,1.963,1,151,2019_Apr_03_1600,Flow_endo_post,3.0.5,59.92864898,
Things just seemed to happen automatically.,,,,,,,,,,,0,19,19,21,,,,,,,,,,,,,,3,3.591,1,151,2019_Apr_03_1600,Flow_endo_post,3.0.5,59.92864898,
The experience left me feeling great.,,,,,,,,,,,0,20,20,18,,,,,,,,,,,,,,3,1.763,1,151,2019_Apr_03_1600,Flow_endo_post,3.0.5,59.92864898,
I was challenged, but I believe my skills will allow me to meet that challenge.,,,,,,,,,,,0,21,21,9,,,,,,,,,,,,,,3,1.686,1,151,2019_Apr_03_1600,Flow_endo_post,3.0.5,59.92864898
I did things spontaneously without having to think.,,,,,,,,,,,0,22,22,22,,,,,,,,,,,,,,3,5.357,1,151,2019_Apr_03_1600,Flow_endo_post,3.0.5,59.92864898,
I performed automatically without having to think about it.,,,,,,,,,,,0,23,23,25,,,,,,,,,,,,,,4,1.605,1,151,2019_Apr_03_1600,Flow_endo_post,3.0.5,59.92864898,
I lost my normal awareness of time.,,,,,,,,,,,0,24,24,20,,,,,,,,,,,,,,3,5.967,1,151,2019_Apr_03_1600,Flow_endo_post,3.0.5,59.92864898,
The experience was extremely rewarding.,,,,,,,,,,,0,25,25,19,,,,,,,,,,,,,,3,1.494,1,151,2019_Apr_03_1600,Flow_endo_post,3.0.5,59.92864898,
