Stair.thisTrialN;Stair.stepSize;Stair.intensity;Stair2.thisTrialN;Stair2.stepSize;Stair2.intensity;Time_pas_Ans.response;Time_pas_Ans.rt;cueExoPos;targetXOri;targetXPos;CorrectAns;Stair.response;keyPress_2.rt;keyPress_2.rl;cueOri;Stair2.response;keyPress.rt;keyPress.rl;Session;Participant;date;expName;psychopyVersion;frameRate
;;;;;;Friday;214.366;;;;;;;;;;;;1;72;2019_Mar_27_1328;Flow_exo_pre;3.0.5;59.62391808
0;1;81;;;;;;-4.6;90;4.6;right;0;13.04193209;left;;;;;1;72;2019_Mar_27_1328;Flow_exo_pre;3.0.5;59.62391808
1;1;82;;;;;;-4.6;0;4.6;right;1;2.344571499;right;;;;;1;72;2019_Mar_27_1328;Flow_exo_pre;3.0.5;59.62391808
2;1;81;;;;;;-4.6;0;4.6;right;1;1.622641705;right;;;;;1;72;2019_Mar_27_1328;Flow_exo_pre;3.0.5;59.62391808
3;1;81;;;;;;-4.6;90;-4.6;left;1;1.228035496;left;;;;;1;72;2019_Mar_27_1328;Flow_exo_pre;3.0.5;59.62391808
4;1;81;;;;;;-4.6;0;4.6;right;1;1.109708524;right;;;;;1;72;2019_Mar_27_1328;Flow_exo_pre;3.0.5;59.62391808
5;1;80;;;;;;4.6;90;4.6;right;1;0.986352156;right;;;;;1;72;2019_Mar_27_1328;Flow_exo_pre;3.0.5;59.62391808
6;1;80;;;;;;-4.6;0;4.6;right;1;1.039975927;right;;;;;1;72;2019_Mar_27_1328;Flow_exo_pre;3.0.5;59.62391808
7;1;80;;;;;;-4.6;90;4.6;right;1;1.170106795;right;;;;;1;72;2019_Mar_27_1328;Flow_exo_pre;3.0.5;59.62391808
8;1;79;;;;;;-4.6;90;-4.6;left;1;1.087095972;left;;;;;1;72;2019_Mar_27_1328;Flow_exo_pre;3.0.5;59.62391808
9;1;79;;;;;;4.6;90;4.6;right;1;1.343870737;right;;;;;1;72;2019_Mar_27_1328;Flow_exo_pre;3.0.5;59.62391808
10;1;79;;;;;;4.6;90;-4.6;left;1;0.937534857;left;;;;;1;72;2019_Mar_27_1328;Flow_exo_pre;3.0.5;59.62391808
11;1;78;;;;;;4.6;90;4.6;right;1;0.922280827;right;;;;;1;72;2019_Mar_27_1328;Flow_exo_pre;3.0.5;59.62391808
12;1;78;;;;;;4.6;90;-4.6;left;1;0.85125282;left;;;;;1;72;2019_Mar_27_1328;Flow_exo_pre;3.0.5;59.62391808
13;1;78;;;;;;-4.6;90;4.6;right;1;0.923704723;right;;;;;1;72;2019_Mar_27_1328;Flow_exo_pre;3.0.5;59.62391808
14;1;77;;;;;;4.6;0;-4.6;left;1;0.819991213;left;;;;;1;72;2019_Mar_27_1328;Flow_exo_pre;3.0.5;59.62391808
15;1;77;;;;;;4.6;0;-4.6;left;1;0.956352405;left;;;;;1;72;2019_Mar_27_1328;Flow_exo_pre;3.0.5;59.62391808
16;1;77;;;;;;-4.6;90;-4.6;left;1;0.887645973;left;;;;;1;72;2019_Mar_27_1328;Flow_exo_pre;3.0.5;59.62391808
17;1;76;;;;;;4.6;90;4.6;right;1;0.837787662;right;;;;;1;72;2019_Mar_27_1328;Flow_exo_pre;3.0.5;59.62391808
18;1;76;;;;;;-4.6;0;-4.6;left;1;1.020917548;left;;;;;1;72;2019_Mar_27_1328;Flow_exo_pre;3.0.5;59.62391808
19;1;76;;;;;;4.6;90;-4.6;left;1;0.984596607;left;;;;;1;72;2019_Mar_27_1328;Flow_exo_pre;3.0.5;59.62391808
20;1;75;;;;;;-4.6;90;-4.6;left;1;1.071007772;left;;;;;1;72;2019_Mar_27_1328;Flow_exo_pre;3.0.5;59.62391808
21;1;75;;;;;;-4.6;90;4.6;right;1;0.902706406;right;;;;;1;72;2019_Mar_27_1328;Flow_exo_pre;3.0.5;59.62391808
22;1;75;;;;;;-4.6;90;-4.6;left;1;0.906396923;left;;;;;1;72;2019_Mar_27_1328;Flow_exo_pre;3.0.5;59.62391808
23;1;74;;;;;;-4.6;90;-4.6;left;1;0.791760527;left;;;;;1;72;2019_Mar_27_1328;Flow_exo_pre;3.0.5;59.62391808
24;1;74;;;;;;4.6;0;-4.6;left;1;0.570119191;left;;;;;1;72;2019_Mar_27_1328;Flow_exo_pre;3.0.5;59.62391808
25;1;74;;;;;;4.6;90;-4.6;left;1;0.807278956;left;;;;;1;72;2019_Mar_27_1328;Flow_exo_pre;3.0.5;59.62391808
26;1;73;;;;;;4.6;0;-4.6;left;1;0.940447252;left;;;;;1;72;2019_Mar_27_1328;Flow_exo_pre;3.0.5;59.62391808
27;1;73;;;;;;4.6;0;-4.6;left;1;0.909355271;left;;;;;1;72;2019_Mar_27_1328;Flow_exo_pre;3.0.5;59.62391808
28;1;73;;;;;;4.6;90;-4.6;left;1;0.768943963;left;;;;;1;72;2019_Mar_27_1328;Flow_exo_pre;3.0.5;59.62391808
29;1;72;;;;;;-4.6;0;-4.6;left;1;0.887671228;left;;;;;1;72;2019_Mar_27_1328;Flow_exo_pre;3.0.5;59.62391808
30;1;72;;;;;;-4.6;90;4.6;right;1;0.855642615;right;;;;;1;72;2019_Mar_27_1328;Flow_exo_pre;3.0.5;59.62391808
31;1;72;;;;;;-4.6;0;4.6;right;1;0.790015802;right;;;;;1;72;2019_Mar_27_1328;Flow_exo_pre;3.0.5;59.62391808
32;1;71;;;;;;4.6;0;-4.6;left;1;0.889881044;left;;;;;1;72;2019_Mar_27_1328;Flow_exo_pre;3.0.5;59.62391808
33;1;71;;;;;;4.6;90;-4.6;left;1;1.322416342;left;;;;;1;72;2019_Mar_27_1328;Flow_exo_pre;3.0.5;59.62391808
34;1;71;;;;;;4.6;0;4.6;right;1;0.959665803;right;;;;;1;72;2019_Mar_27_1328;Flow_exo_pre;3.0.5;59.62391808
35;1;70;;;;;;-4.6;0;-4.6;left;1;0.686793518;left;;;;;1;72;2019_Mar_27_1328;Flow_exo_pre;3.0.5;59.62391808
36;1;70;;;;;;4.6;90;4.6;right;1;0.760055904;right;;;;;1;72;2019_Mar_27_1328;Flow_exo_pre;3.0.5;59.62391808
37;1;70;;;;;;4.6;0;-4.6;left;1;0.804541181;left;;;;;1;72;2019_Mar_27_1328;Flow_exo_pre;3.0.5;59.62391808
38;1;69;;;;;;-4.6;0;4.6;right;1;1.15572658;right;;;;;1;72;2019_Mar_27_1328;Flow_exo_pre;3.0.5;59.62391808
39;1;69;;;;;;4.6;0;-4.6;left;1;0.919112659;left;;;;;1;72;2019_Mar_27_1328;Flow_exo_pre;3.0.5;59.62391808
40;1;69;;;;;;-4.6;0;4.6;right;1;0.855374218;right;;;;;1;72;2019_Mar_27_1328;Flow_exo_pre;3.0.5;59.62391808
41;1;68;;;;;;-4.6;0;4.6;right;1;0.74230901;right;;;;;1;72;2019_Mar_27_1328;Flow_exo_pre;3.0.5;59.62391808
42;1;68;;;;;;4.6;0;-4.6;left;1;1.055279318;left;;;;;1;72;2019_Mar_27_1328;Flow_exo_pre;3.0.5;59.62391808
43;1;68;;;;;;4.6;0;4.6;right;1;0.860106922;right;;;;;1;72;2019_Mar_27_1328;Flow_exo_pre;3.0.5;59.62391808
44;1;67;;;;;;4.6;90;-4.6;left;0;1.405386162;right;;;;;1;72;2019_Mar_27_1328;Flow_exo_pre;3.0.5;59.62391808
45;1;68;;;;;;4.6;0;4.6;right;1;0.888570568;right;;;;;1;72;2019_Mar_27_1328;Flow_exo_pre;3.0.5;59.62391808
46;1;68;;;;;;4.6;90;-4.6;left;1;1.389079352;left;;;;;1;72;2019_Mar_27_1328;Flow_exo_pre;3.0.5;59.62391808
47;1;68;;;;;;4.6;90;-4.6;left;1;1.206964727;left;;;;;1;72;2019_Mar_27_1328;Flow_exo_pre;3.0.5;59.62391808
48;1;67;;;;;;4.6;90;4.6;right;1;1.376777369;right;;;;;1;72;2019_Mar_27_1328;Flow_exo_pre;3.0.5;59.62391808
49;1;67;;;;;;4.6;0;4.6;right;1;1.772255628;right;;;;;1;72;2019_Mar_27_1328;Flow_exo_pre;3.0.5;59.62391808
50;1;67;;;;;;4.6;0;-4.6;left;1;1.352387716;left;;;;;1;72;2019_Mar_27_1328;Flow_exo_pre;3.0.5;59.62391808
51;1;66;;;;;;4.6;90;-4.6;left;0;1.085908821;right;;;;;1;72;2019_Mar_27_1328;Flow_exo_pre;3.0.5;59.62391808
52;1;67;;;;;;-4.6;0;-4.6;left;1;1.622952758;left;;;;;1;72;2019_Mar_27_1328;Flow_exo_pre;3.0.5;59.62391808
53;1;67;;;;;;-4.6;90;-4.6;left;1;1.270966477;left;;;;;1;72;2019_Mar_27_1328;Flow_exo_pre;3.0.5;59.62391808
54;1;67;;;;;;-4.6;0;4.6;right;1;1.025236962;right;;;;;1;72;2019_Mar_27_1328;Flow_exo_pre;3.0.5;59.62391808
55;1;66;;;;;;-4.6;0;4.6;right;0;1.174852938;left;;;;;1;72;2019_Mar_27_1328;Flow_exo_pre;3.0.5;59.62391808
56;1;67;;;;;;4.6;0;4.6;right;1;1.340181433;right;;;;;1;72;2019_Mar_27_1328;Flow_exo_pre;3.0.5;59.62391808
57;1;67;;;;;;4.6;0;-4.6;left;1;1.156587314;left;;;;;1;72;2019_Mar_27_1328;Flow_exo_pre;3.0.5;59.62391808
58;1;67;;;;;;-4.6;0;-4.6;left;0;1.171660852;right;;;;;1;72;2019_Mar_27_1328;Flow_exo_pre;3.0.5;59.62391808
59;1;68;;;;;;-4.6;90;-4.6;left;1;1.239898785;left;;;;;1;72;2019_Mar_27_1328;Flow_exo_pre;3.0.5;59.62391808
60;1;68;;;;;;-4.6;0;4.6;right;1;1.003824506;right;;;;;1;72;2019_Mar_27_1328;Flow_exo_pre;3.0.5;59.62391808
61;1;68;;;;;;-4.6;90;4.6;right;1;1.224896634;right;;;;;1;72;2019_Mar_27_1328;Flow_exo_pre;3.0.5;59.62391808
62;1;67;;;;;;4.6;0;4.6;right;1;1.124729663;right;;;;;1;72;2019_Mar_27_1328;Flow_exo_pre;3.0.5;59.62391808
63;1;67;;;;;;4.6;90;4.6;right;0;1.393794641;left;;;;;1;72;2019_Mar_27_1328;Flow_exo_pre;3.0.5;59.62391808
64;1;68;;;;;;4.6;0;-4.6;left;1;2.40716619;left;;;;;1;72;2019_Mar_27_1328;Flow_exo_pre;3.0.5;59.62391808
65;1;68;;;;;;-4.6;90;4.6;right;1;0.985103113;right;;;;;1;72;2019_Mar_27_1328;Flow_exo_pre;3.0.5;59.62391808
66;1;68;;;;;;-4.6;90;4.6;right;0;1.103732249;left;;;;;1;72;2019_Mar_27_1328;Flow_exo_pre;3.0.5;59.62391808
67;1;69;;;;;;-4.6;90;4.6;right;1;1.023350254;right;;;;;1;72;2019_Mar_27_1328;Flow_exo_pre;3.0.5;59.62391808
68;1;69;;;;;;4.6;90;-4.6;left;1;1.169194156;left;;;;;1;72;2019_Mar_27_1328;Flow_exo_pre;3.0.5;59.62391808
69;1;69;;;;;;-4.6;0;4.6;right;0;1.22240177;left;;;;;1;72;2019_Mar_27_1328;Flow_exo_pre;3.0.5;59.62391808
70;1;70;;;;;;4.6;0;-4.6;left;1;0.901059083;left;;;;;1;72;2019_Mar_27_1328;Flow_exo_pre;3.0.5;59.62391808
71;1;70;;;;;;-4.6;90;-4.6;left;1;0.890481403;left;;;;;1;72;2019_Mar_27_1328;Flow_exo_pre;3.0.5;59.62391808
72;1;70;;;;;;4.6;90;-4.6;left;1;1.152897031;left;;;;;1;72;2019_Mar_27_1328;Flow_exo_pre;3.0.5;59.62391808
73;1;69;;;;;;4.6;90;-4.6;left;1;1.154487961;left;;;;;1;72;2019_Mar_27_1328;Flow_exo_pre;3.0.5;59.62391808
74;1;69;;;;;;4.6;90;-4.6;left;1;1.191107665;left;;;;;1;72;2019_Mar_27_1328;Flow_exo_pre;3.0.5;59.62391808
75;1;69;;;;;;4.6;0;4.6;right;0;0.970895423;left;;;;;1;72;2019_Mar_27_1328;Flow_exo_pre;3.0.5;59.62391808
76;1;70;;;;;;-4.6;0;-4.6;left;1;0.925318504;left;;;;;1;72;2019_Mar_27_1328;Flow_exo_pre;3.0.5;59.62391808
77;1;70;;;;;;-4.6;0;-4.6;left;1;0.792930052;left;;;;;1;72;2019_Mar_27_1328;Flow_exo_pre;3.0.5;59.62391808
78;1;70;;;;;;-4.6;90;4.6;right;0;1.437542567;left;;;;;1;72;2019_Mar_27_1328;Flow_exo_pre;3.0.5;59.62391808
79;1;71;;;;;;4.6;0;4.6;right;1;1.00666374;right;;;;;1;72;2019_Mar_27_1328;Flow_exo_pre;3.0.5;59.62391808
80;1;71;;;;;;4.6;0;-4.6;left;1;0.790102915;left;;;;;1;72;2019_Mar_27_1328;Flow_exo_pre;3.0.5;59.62391808
81;1;71;;;;;;-4.6;0;4.6;right;1;1.074191601;right;;;;;1;72;2019_Mar_27_1328;Flow_exo_pre;3.0.5;59.62391808
82;1;70;;;;;;-4.6;90;-4.6;left;1;0.755165076;left;;;;;1;72;2019_Mar_27_1328;Flow_exo_pre;3.0.5;59.62391808
83;1;70;;;;;;4.6;0;-4.6;left;1;1.086968779;left;;;;;1;72;2019_Mar_27_1328;Flow_exo_pre;3.0.5;59.62391808
84;1;70;;;;;;4.6;90;-4.6;left;1;0.905478771;left;;;;;1;72;2019_Mar_27_1328;Flow_exo_pre;3.0.5;59.62391808
85;1;69;;;;;;-4.6;90;-4.6;left;1;0.838866922;left;;;;;1;72;2019_Mar_27_1328;Flow_exo_pre;3.0.5;59.62391808
86;1;69;;;;;;4.6;0;4.6;right;0;0.937919587;left;;;;;1;72;2019_Mar_27_1328;Flow_exo_pre;3.0.5;59.62391808
87;1;70;;;;;;4.6;0;4.6;right;1;0.772248679;right;;;;;1;72;2019_Mar_27_1328;Flow_exo_pre;3.0.5;59.62391808
88;1;70;;;;;;-4.6;0;-4.6;left;1;0.682344187;left;;;;;1;72;2019_Mar_27_1328;Flow_exo_pre;3.0.5;59.62391808
89;1;70;;;;;;4.6;0;4.6;right;1;0.604369279;right;;;;;1;72;2019_Mar_27_1328;Flow_exo_pre;3.0.5;59.62391808
90;1;69;;;;;;-4.6;0;-4.6;left;1;0.671455769;left;;;;;1;72;2019_Mar_27_1328;Flow_exo_pre;3.0.5;59.62391808
91;1;69;;;;;;4.6;90;-4.6;left;0;1.172229638;right;;;;;1;72;2019_Mar_27_1328;Flow_exo_pre;3.0.5;59.62391808
;;;0;1;81;;;;0;4.6;right;;;;180;1;1.034790413;right;1;72;2019_Mar_27_1328;Flow_exo_pre;3.0.5;59.62391808
;;;1;1;80;;;;0;4.6;right;;;;180;1;0.887001809;right;1;72;2019_Mar_27_1328;Flow_exo_pre;3.0.5;59.62391808
;;;2;1;79;;;;0;-4.6;left;;;;0;1;0.8074374;left;1;72;2019_Mar_27_1328;Flow_exo_pre;3.0.5;59.62391808
;;;3;1;78;;;;0;4.6;right;;;;180;1;0.774151283;right;1;72;2019_Mar_27_1328;Flow_exo_pre;3.0.5;59.62391808
;;;4;1;77;;;;0;-4.6;left;;;;180;1;0.820709514;left;1;72;2019_Mar_27_1328;Flow_exo_pre;3.0.5;59.62391808
;;;5;1;76;;;;0;-4.6;left;;;;0;1;0.88382266;left;1;72;2019_Mar_27_1328;Flow_exo_pre;3.0.5;59.62391808
;;;6;1;75;;;;0;-4.6;left;;;;180;1;0.819376576;left;1;72;2019_Mar_27_1328;Flow_exo_pre;3.0.5;59.62391808
;;;7;1;74;;;;0;4.6;right;;;;180;1;1.019775723;right;1;72;2019_Mar_27_1328;Flow_exo_pre;3.0.5;59.62391808
;;;8;1;73;;;;0;-4.6;left;;;;180;1;0.857211059;left;1;72;2019_Mar_27_1328;Flow_exo_pre;3.0.5;59.62391808
;;;9;1;72;;;;90;4.6;right;;;;0;1;1.052166461;right;1;72;2019_Mar_27_1328;Flow_exo_pre;3.0.5;59.62391808
;;;10;1;71;;;;0;4.6;right;;;;0;1;0.887653876;right;1;72;2019_Mar_27_1328;Flow_exo_pre;3.0.5;59.62391808
;;;11;1;70;;;;90;4.6;right;;;;180;1;0.671367135;right;1;72;2019_Mar_27_1328;Flow_exo_pre;3.0.5;59.62391808
;;;12;1;69;;;;90;4.6;right;;;;180;1;0.78685599;right;1;72;2019_Mar_27_1328;Flow_exo_pre;3.0.5;59.62391808
;;;13;1;68;;;;0;-4.6;left;;;;0;1;0.68910612;left;1;72;2019_Mar_27_1328;Flow_exo_pre;3.0.5;59.62391808
;;;14;1;67;;;;0;4.6;right;;;;180;1;0.737618566;right;1;72;2019_Mar_27_1328;Flow_exo_pre;3.0.5;59.62391808
;;;15;1;66;;;;0;4.6;right;;;;0;1;1.002651646;right;1;72;2019_Mar_27_1328;Flow_exo_pre;3.0.5;59.62391808
;;;16;1;65;;;;0;-4.6;left;;;;180;0;2.093013866;right;1;72;2019_Mar_27_1328;Flow_exo_pre;3.0.5;59.62391808
;;;17;1;66;;;;90;4.6;right;;;;180;1;0.922711845;right;1;72;2019_Mar_27_1328;Flow_exo_pre;3.0.5;59.62391808
;;;18;1;66;;;;0;4.6;right;;;;0;1;1.372767134;right;1;72;2019_Mar_27_1328;Flow_exo_pre;3.0.5;59.62391808
;;;19;1;66;;;;0;4.6;right;;;;180;1;0.78823374;right;1;72;2019_Mar_27_1328;Flow_exo_pre;3.0.5;59.62391808
;;;20;1;65;;;;0;-4.6;left;;;;180;1;2.709279031;left;1;72;2019_Mar_27_1328;Flow_exo_pre;3.0.5;59.62391808
;;;21;1;65;;;;0;-4.6;left;;;;0;0;1.721965277;right;1;72;2019_Mar_27_1328;Flow_exo_pre;3.0.5;59.62391808
;;;22;1;66;;;;90;4.6;right;;;;0;1;1.219524412;right;1;72;2019_Mar_27_1328;Flow_exo_pre;3.0.5;59.62391808
;;;23;1;66;;;;0;-4.6;left;;;;180;1;1.090315181;left;1;72;2019_Mar_27_1328;Flow_exo_pre;3.0.5;59.62391808
;;;24;1;66;;;;0;4.6;right;;;;0;1;1.407019503;right;1;72;2019_Mar_27_1328;Flow_exo_pre;3.0.5;59.62391808
;;;25;1;65;;;;0;-4.6;left;;;;180;0;1.440143062;right;1;72;2019_Mar_27_1328;Flow_exo_pre;3.0.5;59.62391808
;;;26;1;66;;;;90;4.6;right;;;;0;1;1.244825686;right;1;72;2019_Mar_27_1328;Flow_exo_pre;3.0.5;59.62391808
;;;27;1;66;;;;0;4.6;right;;;;180;0;1.222014677;left;1;72;2019_Mar_27_1328;Flow_exo_pre;3.0.5;59.62391808
;;;28;1;67;;;;0;4.6;right;;;;0;1;0.956546476;right;1;72;2019_Mar_27_1328;Flow_exo_pre;3.0.5;59.62391808
;;;29;1;67;;;;90;4.6;right;;;;0;1;2.422999201;right;1;72;2019_Mar_27_1328;Flow_exo_pre;3.0.5;59.62391808
;;;30;1;67;;;;90;-4.6;left;;;;0;1;1.421381326;left;1;72;2019_Mar_27_1328;Flow_exo_pre;3.0.5;59.62391808
;;;31;1;66;;;;90;-4.6;left;;;;180;1;1.09157618;left;1;72;2019_Mar_27_1328;Flow_exo_pre;3.0.5;59.62391808
;;;32;1;66;;;;0;4.6;right;;;;0;0;1.561284301;left;1;72;2019_Mar_27_1328;Flow_exo_pre;3.0.5;59.62391808
;;;33;1;67;;;;90;4.6;right;;;;0;1;1.170502395;right;1;72;2019_Mar_27_1328;Flow_exo_pre;3.0.5;59.62391808
;;;34;1;67;;;;90;-4.6;left;;;;180;0;1.472857975;right;1;72;2019_Mar_27_1328;Flow_exo_pre;3.0.5;59.62391808
;;;35;1;68;;;;90;-4.6;left;;;;0;1;0.970414223;left;1;72;2019_Mar_27_1328;Flow_exo_pre;3.0.5;59.62391808
;;;36;1;68;;;;0;4.6;right;;;;0;1;2.074676316;right;1;72;2019_Mar_27_1328;Flow_exo_pre;3.0.5;59.62391808
;;;37;1;68;;;;0;-4.6;left;;;;0;1;0.936427812;left;1;72;2019_Mar_27_1328;Flow_exo_pre;3.0.5;59.62391808
;;;38;1;67;;;;0;4.6;right;;;;180;1;1.62232162;right;1;72;2019_Mar_27_1328;Flow_exo_pre;3.0.5;59.62391808
;;;39;1;67;;;;0;4.6;right;;;;180;0;1.241387922;left;1;72;2019_Mar_27_1328;Flow_exo_pre;3.0.5;59.62391808
;;;40;1;68;;;;90;4.6;right;;;;0;1;2.023705557;right;1;72;2019_Mar_27_1328;Flow_exo_pre;3.0.5;59.62391808
;;;41;1;68;;;;90;-4.6;left;;;;180;1;1.190249036;left;1;72;2019_Mar_27_1328;Flow_exo_pre;3.0.5;59.62391808
;;;42;1;68;;;;90;-4.6;left;;;;0;1;1.052379881;left;1;72;2019_Mar_27_1328;Flow_exo_pre;3.0.5;59.62391808
;;;43;1;67;;;;90;-4.6;left;;;;180;1;0.883545941;left;1;72;2019_Mar_27_1328;Flow_exo_pre;3.0.5;59.62391808
;;;44;1;67;;;;90;-4.6;left;;;;0;1;1.391903052;left;1;72;2019_Mar_27_1328;Flow_exo_pre;3.0.5;59.62391808
;;;45;1;67;;;;0;4.6;right;;;;180;1;1.620857802;right;1;72;2019_Mar_27_1328;Flow_exo_pre;3.0.5;59.62391808
;;;46;1;66;;;;0;4.6;right;;;;0;1;1.185561537;right;1;72;2019_Mar_27_1328;Flow_exo_pre;3.0.5;59.62391808
;;;47;1;66;;;;90;4.6;right;;;;180;0;1.204273937;left;1;72;2019_Mar_27_1328;Flow_exo_pre;3.0.5;59.62391808
;;;48;1;67;;;;0;-4.6;left;;;;180;1;1.088632441;left;1;72;2019_Mar_27_1328;Flow_exo_pre;3.0.5;59.62391808
;;;49;1;67;;;;0;-4.6;left;;;;180;0;1.138539477;right;1;72;2019_Mar_27_1328;Flow_exo_pre;3.0.5;59.62391808
;;;50;1;68;;;;90;-4.6;left;;;;0;1;0.72090024;left;1;72;2019_Mar_27_1328;Flow_exo_pre;3.0.5;59.62391808
;;;51;1;68;;;;0;4.6;right;;;;0;0;0.951446381;left;1;72;2019_Mar_27_1328;Flow_exo_pre;3.0.5;59.62391808
;;;52;1;69;;;;90;4.6;right;;;;180;1;1.588432208;right;1;72;2019_Mar_27_1328;Flow_exo_pre;3.0.5;59.62391808
;;;53;1;69;;;;90;4.6;right;;;;180;1;1.359824274;right;1;72;2019_Mar_27_1328;Flow_exo_pre;3.0.5;59.62391808
;;;54;1;69;;;;0;-4.6;left;;;;0;1;0.919454103;left;1;72;2019_Mar_27_1328;Flow_exo_pre;3.0.5;59.62391808
;;;55;1;68;;;;90;-4.6;left;;;;180;1;0.922802053;left;1;72;2019_Mar_27_1328;Flow_exo_pre;3.0.5;59.62391808
;;;56;1;68;;;;0;-4.6;left;;;;0;1;0.986850023;left;1;72;2019_Mar_27_1328;Flow_exo_pre;3.0.5;59.62391808
;;;57;1;68;;;;90;4.6;right;;;;0;0;1.17527639;left;1;72;2019_Mar_27_1328;Flow_exo_pre;3.0.5;59.62391808
;;;58;1;69;;;;0;-4.6;left;;;;180;1;0.841454342;left;1;72;2019_Mar_27_1328;Flow_exo_pre;3.0.5;59.62391808
;;;59;1;69;;;;90;4.6;right;;;;0;0;1.341008616;left;1;72;2019_Mar_27_1328;Flow_exo_pre;3.0.5;59.62391808
;;;60;1;70;;;;90;-4.6;left;;;;180;1;0.85200183;left;1;72;2019_Mar_27_1328;Flow_exo_pre;3.0.5;59.62391808
;;;61;1;70;;;;0;4.6;right;;;;180;0;1.036398408;left;1;72;2019_Mar_27_1328;Flow_exo_pre;3.0.5;59.62391808
;;;62;1;71;;;;90;-4.6;left;;;;0;1;0.768878013;left;1;72;2019_Mar_27_1328;Flow_exo_pre;3.0.5;59.62391808
;;;63;1;71;;;;0;4.6;right;;;;180;0;0.843579871;left;1;72;2019_Mar_27_1328;Flow_exo_pre;3.0.5;59.62391808
;;;64;1;72;;;;0;4.6;right;;;;180;1;0.974873188;right;1;72;2019_Mar_27_1328;Flow_exo_pre;3.0.5;59.62391808
;;;65;1;72;;;;0;4.6;right;;;;180;1;0.921549602;right;1;72;2019_Mar_27_1328;Flow_exo_pre;3.0.5;59.62391808
;;;66;1;72;;;;90;4.6;right;;;;0;1;0.85191599;right;1;72;2019_Mar_27_1328;Flow_exo_pre;3.0.5;59.62391808