Stair.thisTrialN;Stair.stepSize;Stair.intensity;Stair2.thisTrialN;Stair2.stepSize;Stair2.intensity;cueOri;targetXOri;targetXPos;CorrectAns;Stair.response;keyPress.rt;keyPress.rl;cueExoPos;Stair2.response;keyPress_2.rt;keyPress_2.rl;Time_pas_Ans.response;Time_pas_Ans.rt;Session;Participant;date;expName;psychopyVersion;frameRate
0;1;81;;;;180;0;4.6;right;1;2.180303132;right;;;;;;;1;16;2016_Jan_02_1544;Flow_endo_pre;3.0.5;60.15084231
1;1;80;;;;180;0;-4.6;left;1;1.680951934;left;;;;;;;1;16;2016_Jan_02_1544;Flow_endo_pre;3.0.5;60.15084231
2;1;79;;;;180;90;4.6;right;1;0.915112188;right;;;;;;;1;16;2016_Jan_02_1544;Flow_endo_pre;3.0.5;60.15084231
3;1;78;;;;180;90;-4.6;left;1;1.016129429;left;;;;;;;1;16;2016_Jan_02_1544;Flow_endo_pre;3.0.5;60.15084231
4;1;77;;;;0;90;-4.6;left;1;0.683603648;left;;;;;;;1;16;2016_Jan_02_1544;Flow_endo_pre;3.0.5;60.15084231
5;1;76;;;;180;90;-4.6;left;1;0.999521575;left;;;;;;;1;16;2016_Jan_02_1544;Flow_endo_pre;3.0.5;60.15084231
6;1;75;;;;180;0;4.6;right;1;0.666990731;right;;;;;;;1;16;2016_Jan_02_1544;Flow_endo_pre;3.0.5;60.15084231
7;1;74;;;;180;0;4.6;right;1;1.06603731;right;;;;;;;1;16;2016_Jan_02_1544;Flow_endo_pre;3.0.5;60.15084231
8;1;73;;;;0;90;4.6;right;0;0.783273244;left;;;;;;;1;16;2016_Jan_02_1544;Flow_endo_pre;3.0.5;60.15084231
9;1;74;;;;0;90;-4.6;left;0;0.532686121;right;;;;;;;1;16;2016_Jan_02_1544;Flow_endo_pre;3.0.5;60.15084231
10;1;75;;;;180;90;-4.6;left;1;1.066067266;left;;;;;;;1;16;2016_Jan_02_1544;Flow_endo_pre;3.0.5;60.15084231
11;1;75;;;;0;0;-4.6;left;1;0.633411513;left;;;;;;;1;16;2016_Jan_02_1544;Flow_endo_pre;3.0.5;60.15084231
12;1;75;;;;0;0;4.6;right;1;0.600483343;right;;;;;;;1;16;2016_Jan_02_1544;Flow_endo_pre;3.0.5;60.15084231
13;1;74;;;;0;90;4.6;right;1;0.76648986;right;;;;;;;1;16;2016_Jan_02_1544;Flow_endo_pre;3.0.5;60.15084231
14;1;74;;;;180;90;-4.6;left;1;0.50070952;left;;;;;;;1;16;2016_Jan_02_1544;Flow_endo_pre;3.0.5;60.15084231
15;1;74;;;;0;0;4.6;right;1;0.533957054;right;;;;;;;1;16;2016_Jan_02_1544;Flow_endo_pre;3.0.5;60.15084231
16;1;73;;;;180;90;-4.6;left;1;0.550579824;left;;;;;;;1;16;2016_Jan_02_1544;Flow_endo_pre;3.0.5;60.15084231
17;1;73;;;;0;90;4.6;right;1;0.683603696;right;;;;;;;1;16;2016_Jan_02_1544;Flow_endo_pre;3.0.5;60.15084231
18;1;73;;;;0;90;-4.6;left;1;0.517329881;left;;;;;;;1;16;2016_Jan_02_1544;Flow_endo_pre;3.0.5;60.15084231
19;1;72;;;;180;0;-4.6;left;1;0.517341379;left;;;;;;;1;16;2016_Jan_02_1544;Flow_endo_pre;3.0.5;60.15084231
20;1;72;;;;180;90;4.6;right;1;0.683499869;right;;;;;;;1;16;2016_Jan_02_1544;Flow_endo_pre;3.0.5;60.15084231
21;1;72;;;;0;0;4.6;right;1;1.016175981;right;;;;;;;1;16;2016_Jan_02_1544;Flow_endo_pre;3.0.5;60.15084231
22;1;71;;;;180;90;4.6;right;1;0.699864261;right;;;;;;;1;16;2016_Jan_02_1544;Flow_endo_pre;3.0.5;60.15084231
23;1;71;;;;0;0;-4.6;left;1;0.466177559;left;;;;;;;1;16;2016_Jan_02_1544;Flow_endo_pre;3.0.5;60.15084231
24;1;71;;;;0;90;-4.6;left;1;0.98281652;left;;;;;;;1;16;2016_Jan_02_1544;Flow_endo_pre;3.0.5;60.15084231
25;1;70;;;;180;90;-4.6;left;1;0.89960338;left;;;;;;;1;16;2016_Jan_02_1544;Flow_endo_pre;3.0.5;60.15084231
26;1;70;;;;0;0;4.6;right;1;0.450830858;right;;;;;;;1;16;2016_Jan_02_1544;Flow_endo_pre;3.0.5;60.15084231
27;1;70;;;;180;0;4.6;right;1;0.616990106;right;;;;;;;1;16;2016_Jan_02_1544;Flow_endo_pre;3.0.5;60.15084231
28;1;69;;;;0;0;4.6;right;1;0.417574853;right;;;;;;;1;16;2016_Jan_02_1544;Flow_endo_pre;3.0.5;60.15084231
29;1;69;;;;180;0;4.6;right;1;0.716733511;right;;;;;;;1;16;2016_Jan_02_1544;Flow_endo_pre;3.0.5;60.15084231
30;1;69;;;;180;90;4.6;right;0;0.432915668;left;;;;;;;1;16;2016_Jan_02_1544;Flow_endo_pre;3.0.5;60.15084231
31;1;70;;;;180;0;4.6;right;1;0.582593498;right;;;;;;;1;16;2016_Jan_02_1544;Flow_endo_pre;3.0.5;60.15084231
32;1;70;;;;0;0;-4.6;left;1;0.48376518;left;;;;;;;1;16;2016_Jan_02_1544;Flow_endo_pre;3.0.5;60.15084231
33;1;70;;;;180;0;4.6;right;1;0.500748683;right;;;;;;;1;16;2016_Jan_02_1544;Flow_endo_pre;3.0.5;60.15084231
34;1;69;;;;0;90;-4.6;left;1;0.666607138;left;;;;;;;1;16;2016_Jan_02_1544;Flow_endo_pre;3.0.5;60.15084231
35;1;69;;;;180;0;4.6;right;1;0.449538387;right;;;;;;;1;16;2016_Jan_02_1544;Flow_endo_pre;3.0.5;60.15084231
36;1;69;;;;0;90;-4.6;left;1;1.315216941;left;;;;;;;1;16;2016_Jan_02_1544;Flow_endo_pre;3.0.5;60.15084231
37;1;68;;;;0;90;4.6;right;1;0.715501433;right;;;;;;;1;16;2016_Jan_02_1544;Flow_endo_pre;3.0.5;60.15084231
38;1;68;;;;180;0;-4.6;left;1;0.500657704;left;;;;;;;1;16;2016_Jan_02_1544;Flow_endo_pre;3.0.5;60.15084231
39;1;68;;;;180;90;-4.6;left;1;1.065941749;left;;;;;;;1;16;2016_Jan_02_1544;Flow_endo_pre;3.0.5;60.15084231
40;1;67;;;;180;90;-4.6;left;1;0.700234596;left;;;;;;;1;16;2016_Jan_02_1544;Flow_endo_pre;3.0.5;60.15084231
41;1;67;;;;0;90;-4.6;left;0;0.334282399;right;;;;;;;1;16;2016_Jan_02_1544;Flow_endo_pre;3.0.5;60.15084231
42;1;68;;;;180;0;4.6;right;0;0.783211009;left;;;;;;;1;16;2016_Jan_02_1544;Flow_endo_pre;3.0.5;60.15084231
43;1;69;;;;180;0;4.6;right;1;0.550613226;right;;;;;;;1;16;2016_Jan_02_1544;Flow_endo_pre;3.0.5;60.15084231
44;1;69;;;;0;0;-4.6;left;1;0.400924202;left;;;;;;;1;16;2016_Jan_02_1544;Flow_endo_pre;3.0.5;60.15084231
45;1;69;;;;180;90;-4.6;left;1;0.550596933;left;;;;;;;1;16;2016_Jan_02_1544;Flow_endo_pre;3.0.5;60.15084231
46;1;68;;;;180;90;4.6;right;0;0.417249431;left;;;;;;;1;16;2016_Jan_02_1544;Flow_endo_pre;3.0.5;60.15084231
47;1;69;;;;180;0;-4.6;left;1;0.43418904;left;;;;;;;1;16;2016_Jan_02_1544;Flow_endo_pre;3.0.5;60.15084231
48;1;69;;;;0;0;-4.6;left;1;0.43408617;left;;;;;;;1;16;2016_Jan_02_1544;Flow_endo_pre;3.0.5;60.15084231
49;1;69;;;;0;0;4.6;right;1;0.483941604;right;;;;;;;1;16;2016_Jan_02_1544;Flow_endo_pre;3.0.5;60.15084231
50;1;68;;;;180;90;4.6;right;0;1.847332128;left;;;;;;;1;16;2016_Jan_02_1544;Flow_endo_pre;3.0.5;60.15084231
51;1;69;;;;0;90;-4.6;left;1;0.517334444;left;;;;;;;1;16;2016_Jan_02_1544;Flow_endo_pre;3.0.5;60.15084231
52;1;69;;;;180;0;4.6;right;1;0.633341777;right;;;;;;;1;16;2016_Jan_02_1544;Flow_endo_pre;3.0.5;60.15084231
53;1;69;;;;180;90;-4.6;left;1;0.633719743;left;;;;;;;1;16;2016_Jan_02_1544;Flow_endo_pre;3.0.5;60.15084231
54;1;68;;;;0;90;4.6;right;1;0.616977583;right;;;;;;;1;16;2016_Jan_02_1544;Flow_endo_pre;3.0.5;60.15084231
55;1;68;;;;180;0;-4.6;left;1;0.883165681;left;;;;;;;1;16;2016_Jan_02_1544;Flow_endo_pre;3.0.5;60.15084231
56;1;68;;;;0;0;4.6;right;1;0.467437437;right;;;;;;;1;16;2016_Jan_02_1544;Flow_endo_pre;3.0.5;60.15084231
57;1;67;;;;0;90;4.6;right;0;1.132556611;left;;;;;;;1;16;2016_Jan_02_1544;Flow_endo_pre;3.0.5;60.15084231
58;1;68;;;;180;0;-4.6;left;1;0.500710335;left;;;;;;;1;16;2016_Jan_02_1544;Flow_endo_pre;3.0.5;60.15084231
59;1;68;;;;180;90;4.6;right;1;0.567073148;right;;;;;;;1;16;2016_Jan_02_1544;Flow_endo_pre;3.0.5;60.15084231
60;1;68;;;;180;0;4.6;right;1;0.766461099;right;;;;;;;1;16;2016_Jan_02_1544;Flow_endo_pre;3.0.5;60.15084231
61;1;67;;;;180;90;4.6;right;0;0.517343358;left;;;;;;;1;16;2016_Jan_02_1544;Flow_endo_pre;3.0.5;60.15084231
62;1;68;;;;180;90;4.6;right;1;0.964999605;right;;;;;;;1;16;2016_Jan_02_1544;Flow_endo_pre;3.0.5;60.15084231
63;1;68;;;;180;90;-4.6;left;1;0.500383165;left;;;;;;;1;16;2016_Jan_02_1544;Flow_endo_pre;3.0.5;60.15084231
64;1;68;;;;180;90;-4.6;left;1;0.616987911;left;;;;;;;1;16;2016_Jan_02_1544;Flow_endo_pre;3.0.5;60.15084231
;;;0;1;81;;90;-4.6;left;;;;-4.6;1;0.833185117;left;;;1;16;2016_Jan_02_1544;Flow_endo_pre;3.0.5;60.15084231
;;;1;1;80;;90;4.6;right;;;;4.6;1;0.583837183;right;;;1;16;2016_Jan_02_1544;Flow_endo_pre;3.0.5;60.15084231
;;;2;1;79;;90;-4.6;left;;;;4.6;1;0.549190702;left;;;1;16;2016_Jan_02_1544;Flow_endo_pre;3.0.5;60.15084231
;;;3;1;78;;0;-4.6;left;;;;-4.6;1;0.566390196;left;;;1;16;2016_Jan_02_1544;Flow_endo_pre;3.0.5;60.15084231
;;;4;1;77;;0;4.6;right;;;;-4.6;1;0.615784422;right;;;1;16;2016_Jan_02_1544;Flow_endo_pre;3.0.5;60.15084231
;;;5;1;76;;0;-4.6;left;;;;-4.6;1;0.450824166;left;;;1;16;2016_Jan_02_1544;Flow_endo_pre;3.0.5;60.15084231
;;;6;1;75;;90;-4.6;left;;;;-4.6;1;0.384056923;left;;;1;16;2016_Jan_02_1544;Flow_endo_pre;3.0.5;60.15084231
;;;7;1;74;;90;4.6;right;;;;4.6;1;0.301028791;right;;;1;16;2016_Jan_02_1544;Flow_endo_pre;3.0.5;60.15084231
;;;8;1;73;;90;-4.6;left;;;;4.6;1;0.783392405;left;;;1;16;2016_Jan_02_1544;Flow_endo_pre;3.0.5;60.15084231
;;;9;1;72;;0;-4.6;left;;;;-4.6;1;0.616760367;left;;;1;16;2016_Jan_02_1544;Flow_endo_pre;3.0.5;60.15084231
;;;10;1;71;;90;-4.6;left;;;;4.6;0;0.600466075;right;;;1;16;2016_Jan_02_1544;Flow_endo_pre;3.0.5;60.15084231
;;;11;1;72;;90;-4.6;left;;;;-4.6;1;0.467321047;left;;;1;16;2016_Jan_02_1544;Flow_endo_pre;3.0.5;60.15084231
;;;12;1;72;;0;4.6;right;;;;-4.6;1;1.132269785;right;;;1;16;2016_Jan_02_1544;Flow_endo_pre;3.0.5;60.15084231
;;;13;1;72;;90;4.6;right;;;;4.6;1;0.550165865;right;;;1;16;2016_Jan_02_1544;Flow_endo_pre;3.0.5;60.15084231
;;;14;1;71;;0;-4.6;left;;;;4.6;1;1.5813568;left;;;1;16;2016_Jan_02_1544;Flow_endo_pre;3.0.5;60.15084231
;;;15;1;71;;0;-4.6;left;;;;4.6;0;0.467443401;right;;;1;16;2016_Jan_02_1544;Flow_endo_pre;3.0.5;60.15084231
;;;16;1;72;;90;-4.6;left;;;;4.6;1;0.816621527;left;;;1;16;2016_Jan_02_1544;Flow_endo_pre;3.0.5;60.15084231
;;;17;1;72;;90;-4.6;left;;;;4.6;1;0.916396417;left;;;1;16;2016_Jan_02_1544;Flow_endo_pre;3.0.5;60.15084231
;;;18;1;72;;90;4.6;right;;;;-4.6;1;0.483704931;right;;;1;16;2016_Jan_02_1544;Flow_endo_pre;3.0.5;60.15084231
;;;19;1;71;;0;-4.6;left;;;;4.6;1;1.182432327;left;;;1;16;2016_Jan_02_1544;Flow_endo_pre;3.0.5;60.15084231
;;;20;1;71;;0;4.6;right;;;;-4.6;1;0.533948784;right;;;1;16;2016_Jan_02_1544;Flow_endo_pre;3.0.5;60.15084231
;;;21;1;71;;90;-4.6;left;;;;4.6;1;0.79969307;left;;;1;16;2016_Jan_02_1544;Flow_endo_pre;3.0.5;60.15084231
;;;22;1;70;;90;-4.6;left;;;;-4.6;1;1.049142428;left;;;1;16;2016_Jan_02_1544;Flow_endo_pre;3.0.5;60.15084231
;;;23;1;70;;90;4.6;right;;;;-4.6;0;1.481615564;left;;;1;16;2016_Jan_02_1544;Flow_endo_pre;3.0.5;60.15084231
;;;24;1;71;;90;4.6;right;;;;-4.6;0;0.617115023;left;;;1;16;2016_Jan_02_1544;Flow_endo_pre;3.0.5;60.15084231
;;;25;1;72;;90;-4.6;left;;;;4.6;0;0.567216006;right;;;1;16;2016_Jan_02_1544;Flow_endo_pre;3.0.5;60.15084231
;;;26;1;73;;0;4.6;right;;;;-4.6;1;1.099469169;right;;;1;16;2016_Jan_02_1544;Flow_endo_pre;3.0.5;60.15084231
;;;27;1;73;;90;4.6;right;;;;4.6;1;0.800114533;right;;;1;16;2016_Jan_02_1544;Flow_endo_pre;3.0.5;60.15084231
;;;28;1;73;;90;-4.6;left;;;;4.6;1;0.998250346;left;;;1;16;2016_Jan_02_1544;Flow_endo_pre;3.0.5;60.15084231
;;;29;1;72;;0;-4.6;left;;;;4.6;1;1.232311131;left;;;1;16;2016_Jan_02_1544;Flow_endo_pre;3.0.5;60.15084231
;;;30;1;72;;0;4.6;right;;;;-4.6;1;0.517326111;right;;;1;16;2016_Jan_02_1544;Flow_endo_pre;3.0.5;60.15084231
;;;31;1;72;;90;4.6;right;;;;4.6;1;0.932729161;right;;;1;16;2016_Jan_02_1544;Flow_endo_pre;3.0.5;60.15084231
;;;32;1;71;;0;-4.6;left;;;;4.6;1;0.766501279;left;;;1;16;2016_Jan_02_1544;Flow_endo_pre;3.0.5;60.15084231
;;;33;1;71;;0;4.6;right;;;;4.6;1;0.499417141;right;;;1;16;2016_Jan_02_1544;Flow_endo_pre;3.0.5;60.15084231
;;;34;1;71;;0;4.6;right;;;;-4.6;1;0.999423705;right;;;1;16;2016_Jan_02_1544;Flow_endo_pre;3.0.5;60.15084231
;;;35;1;70;;0;-4.6;left;;;;-4.6;1;0.533966656;left;;;1;16;2016_Jan_02_1544;Flow_endo_pre;3.0.5;60.15084231
;;;36;1;70;;0;-4.6;left;;;;-4.6;1;0.883142925;left;;;1;16;2016_Jan_02_1544;Flow_endo_pre;3.0.5;60.15084231
;;;37;1;70;;90;-4.6;left;;;;4.6;0;0.899756117;right;;;1;16;2016_Jan_02_1544;Flow_endo_pre;3.0.5;60.15084231
;;;38;1;71;;0;4.6;right;;;;-4.6;0;0.55063604;left;;;1;16;2016_Jan_02_1544;Flow_endo_pre;3.0.5;60.15084231
;;;39;1;72;;90;4.6;right;;;;4.6;1;0.467127372;right;;;1;16;2016_Jan_02_1544;Flow_endo_pre;3.0.5;60.15084231
;;;40;1;72;;0;4.6;right;;;;-4.6;1;0.766730226;right;;;1;16;2016_Jan_02_1544;Flow_endo_pre;3.0.5;60.15084231
;;;41;1;72;;0;4.6;right;;;;-4.6;1;1.7973714;right;;;1;16;2016_Jan_02_1544;Flow_endo_pre;3.0.5;60.15084231
;;;42;1;71;;0;4.6;right;;;;4.6;0;1.830876278;left;;;1;16;2016_Jan_02_1544;Flow_endo_pre;3.0.5;60.15084231
;;;43;1;72;;0;4.6;right;;;;-4.6;1;0.600161902;right;;;1;16;2016_Jan_02_1544;Flow_endo_pre;3.0.5;60.15084231
;;;44;1;72;;90;4.6;right;;;;4.6;1;0.883164352;right;;;1;16;2016_Jan_02_1544;Flow_endo_pre;3.0.5;60.15084231
;;;45;1;72;;0;4.6;right;;;;4.6;1;0.982973365;right;;;1;16;2016_Jan_02_1544;Flow_endo_pre;3.0.5;60.15084231
;;;46;1;71;;90;-4.6;left;;;;4.6;1;0.650340426;left;;;1;16;2016_Jan_02_1544;Flow_endo_pre;3.0.5;60.15084231
;;;47;1;71;;0;-4.6;left;;;;-4.6;1;0.483780413;left;;;1;16;2016_Jan_02_1544;Flow_endo_pre;3.0.5;60.15084231
;;;48;1;71;;0;4.6;right;;;;4.6;1;0.650233703;right;;;1;16;2016_Jan_02_1544;Flow_endo_pre;3.0.5;60.15084231
;;;49;1;70;;90;-4.6;left;;;;-4.6;1;0.450792566;left;;;1;16;2016_Jan_02_1544;Flow_endo_pre;3.0.5;60.15084231
;;;50;1;70;;0;-4.6;left;;;;4.6;1;1.315460463;left;;;1;16;2016_Jan_02_1544;Flow_endo_pre;3.0.5;60.15084231
;;;51;1;70;;90;4.6;right;;;;-4.6;0;1.165437953;left;;;1;16;2016_Jan_02_1544;Flow_endo_pre;3.0.5;60.15084231
;;;52;1;71;;0;4.6;right;;;;4.6;1;0.682321226;right;;;1;16;2016_Jan_02_1544;Flow_endo_pre;3.0.5;60.15084231
;;;53;1;71;;0;4.6;right;;;;4.6;1;0.617084161;right;;;1;16;2016_Jan_02_1544;Flow_endo_pre;3.0.5;60.15084231
;;;54;1;71;;0;-4.6;left;;;;4.6;1;0.600191888;left;;;1;16;2016_Jan_02_1544;Flow_endo_pre;3.0.5;60.15084231
;;;55;1;70;;90;4.6;right;;;;4.6;1;0.633490229;right;;;1;16;2016_Jan_02_1544;Flow_endo_pre;3.0.5;60.15084231
;;;56;1;70;;0;4.6;right;;;;-4.6;0;0.533951503;left;;;1;16;2016_Jan_02_1544;Flow_endo_pre;3.0.5;60.15084231
;;;57;1;71;;0;-4.6;left;;;;-4.6;1;0.567336956;left;;;1;16;2016_Jan_02_1544;Flow_endo_pre;3.0.5;60.15084231
;;;58;1;71;;90;4.6;right;;;;4.6;1;0.832932183;right;;;1;16;2016_Jan_02_1544;Flow_endo_pre;3.0.5;60.15084231
;;;59;1;71;;90;4.6;right;;;;4.6;1;1.082671088;right;;;1;16;2016_Jan_02_1544;Flow_endo_pre;3.0.5;60.15084231
;;;;;;;;;;;;;;;;;Monday;27.669;1;16;2016_Jan_02_1544;Flow_endo_pre;3.0.5;60.15084231
