Questions,Stair.thisTrialN,Stair.stepSize,Stair.intensity,Stair2.thisTrialN,Stair2.stepSize,Stair2.intensity,controlQ.thisRepN,controlQ.thisTrialN,controlQ.thisN,controlQ.thisIndex,Qs.thisRepN,Qs.thisTrialN,Qs.thisN,Qs.thisIndex,cueOri,targetXOri,targetXPos,CorrectAns,Stair.response,keyPress.rt,keyPress.rl,cueExoPos,Stair2.response,keyPress_2.rt,keyPress_2.rl,key_start.keys,key_start.rt,Quest_Ans.response,Quest_Ans.rt,Session,Participant,date,expName,psychopyVersion,frameRate,
,0,1,81,,,,,,,,,,,,180,0,-4.6,left,1,1.718639712,left,,,,,,,,,1,265,2019_Apr_03_1727,Flow_endo_post,3.0.5,60.05500297,
,1,1,80,,,,,,,,,,,,0,0,-4.6,left,1,1.096987401,left,,,,,,,,,1,265,2019_Apr_03_1727,Flow_endo_post,3.0.5,60.05500297,
,2,1,79,,,,,,,,,,,,180,0,-4.6,left,1,1.100380848,left,,,,,,,,,1,265,2019_Apr_03_1727,Flow_endo_post,3.0.5,60.05500297,
,3,1,78,,,,,,,,,,,,180,0,4.6,right,0,1.097259885,left,,,,,,,,,1,265,2019_Apr_03_1727,Flow_endo_post,3.0.5,60.05500297,
,4,1,79,,,,,,,,,,,,180,90,-4.6,left,0,1.098507882,right,,,,,,,,,1,265,2019_Apr_03_1727,Flow_endo_post,3.0.5,60.05500297,
,5,1,80,,,,,,,,,,,,180,90,-4.6,left,1,1.099578425,left,,,,,,,,,1,265,2019_Apr_03_1727,Flow_endo_post,3.0.5,60.05500297,
,6,1,80,,,,,,,,,,,,0,90,-4.6,left,1,1.098239762,left,,,,,,,,,1,265,2019_Apr_03_1727,Flow_endo_post,3.0.5,60.05500297,
,7,1,80,,,,,,,,,,,,0,0,-4.6,left,1,1.098629579,left,,,,,,,,,1,265,2019_Apr_03_1727,Flow_endo_post,3.0.5,60.05500297,
,8,1,79,,,,,,,,,,,,0,0,-4.6,left,1,1.099316608,left,,,,,,,,,1,265,2019_Apr_03_1727,Flow_endo_post,3.0.5,60.05500297,
,9,1,79,,,,,,,,,,,,180,0,4.6,right,0,1.099351032,left,,,,,,,,,1,265,2019_Apr_03_1727,Flow_endo_post,3.0.5,60.05500297,
,10,1,80,,,,,,,,,,,,0,0,4.6,right,1,1.098454064,right,,,,,,,,,1,265,2019_Apr_03_1727,Flow_endo_post,3.0.5,60.05500297,
,11,1,80,,,,,,,,,,,,180,90,4.6,right,1,1.099512971,right,,,,,,,,,1,265,2019_Apr_03_1727,Flow_endo_post,3.0.5,60.05500297,
,12,1,80,,,,,,,,,,,,0,0,-4.6,left,0,1.096914189,right,,,,,,,,,1,265,2019_Apr_03_1727,Flow_endo_post,3.0.5,60.05500297,
,13,1,81,,,,,,,,,,,,0,0,-4.6,left,1,1.099228366,left,,,,,,,,,1,265,2019_Apr_03_1727,Flow_endo_post,3.0.5,60.05500297,
,14,1,81,,,,,,,,,,,,180,0,4.6,right,0,1.098868609,left,,,,,,,,,1,265,2019_Apr_03_1727,Flow_endo_post,3.0.5,60.05500297,
,15,1,82,,,,,,,,,,,,0,90,-4.6,left,0,1.098378913,right,,,,,,,,,1,265,2019_Apr_03_1727,Flow_endo_post,3.0.5,60.05500297,
,16,1,83,,,,,,,,,,,,180,90,4.6,right,0,1.098737215,left,,,,,,,,,1,265,2019_Apr_03_1727,Flow_endo_post,3.0.5,60.05500297,
,17,1,84,,,,,,,,,,,,180,90,-4.6,left,0,1.099381577,right,,,,,,,,,1,265,2019_Apr_03_1727,Flow_endo_post,3.0.5,60.05500297,
,18,1,85,,,,,,,,,,,,0,0,-4.6,left,1,1.098275156,left,,,,,,,,,1,265,2019_Apr_03_1727,Flow_endo_post,3.0.5,60.05500297,
,19,1,85,,,,,,,,,,,,180,90,-4.6,left,1,1.100241696,left,,,,,,,,,1,265,2019_Apr_03_1727,Flow_endo_post,3.0.5,60.05500297,
,20,1,85,,,,,,,,,,,,180,0,4.6,right,0,1.096838553,left,,,,,,,,,1,265,2019_Apr_03_1727,Flow_endo_post,3.0.5,60.05500297,
,21,1,86,,,,,,,,,,,,0,90,4.6,right,1,1.099182305,right,,,,,,,,,1,265,2019_Apr_03_1727,Flow_endo_post,3.0.5,60.05500297,
,22,1,86,,,,,,,,,,,,0,0,-4.6,left,0,1.099399032,right,,,,,,,,,1,265,2019_Apr_03_1727,Flow_endo_post,3.0.5,60.05500297,
,23,1,87,,,,,,,,,,,,0,0,-4.6,left,1,1.098533094,left,,,,,,,,,1,265,2019_Apr_03_1727,Flow_endo_post,3.0.5,60.05500297,
,24,1,87,,,,,,,,,,,,0,90,4.6,right,0,1.098594185,left,,,,,,,,,1,265,2019_Apr_03_1727,Flow_endo_post,3.0.5,60.05500297,
,25,1,88,,,,,,,,,,,,0,0,-4.6,left,0,1.098554428,right,,,,,,,,,1,265,2019_Apr_03_1727,Flow_endo_post,3.0.5,60.05500297,
,26,1,89,,,,,,,,,,,,0,0,-4.6,left,1,1.098062308,left,,,,,,,,,1,265,2019_Apr_03_1727,Flow_endo_post,3.0.5,60.05500297,
,27,1,89,,,,,,,,,,,,180,0,4.6,right,0,1.099866909,left,,,,,,,,,1,265,2019_Apr_03_1727,Flow_endo_post,3.0.5,60.05500297,
,28,1,90,,,,,,,,,,,,180,0,4.6,right,1,1.098400246,right,,,,,,,,,1,265,2019_Apr_03_1727,Flow_endo_post,3.0.5,60.05500297,
,29,1,90,,,,,,,,,,,,180,0,4.6,right,1,1.099650183,right,,,,,,,,,1,265,2019_Apr_03_1727,Flow_endo_post,3.0.5,60.05500297,
,30,1,90,,,,,,,,,,,,0,90,-4.6,left,0,1.098603397,right,,,,,,,,,1,265,2019_Apr_03_1727,Flow_endo_post,3.0.5,60.05500297,
,31,1,91,,,,,,,,,,,,0,0,4.6,right,0,1.09797552,left,,,,,,,,,1,265,2019_Apr_03_1727,Flow_endo_post,3.0.5,60.05500297,
,32,1,92,,,,,,,,,,,,180,90,4.6,right,1,1.099653092,right,,,,,,,,,1,265,2019_Apr_03_1727,Flow_endo_post,3.0.5,60.05500297,
,33,1,92,,,,,,,,,,,,0,0,-4.6,left,0,1.098035156,right,,,,,,,,,1,265,2019_Apr_03_1727,Flow_endo_post,3.0.5,60.05500297,
,34,1,93,,,,,,,,,,,,0,0,4.6,right,0,1.099231759,left,,,,,,,,,1,265,2019_Apr_03_1727,Flow_endo_post,3.0.5,60.05500297,
,35,1,94,,,,,,,,,,,,180,0,4.6,right,1,1.099591031,right,,,,,,,,,1,265,2019_Apr_03_1727,Flow_endo_post,3.0.5,60.05500297,
,36,1,94,,,,,,,,,,,,0,90,-4.6,left,0,1.098399277,right,,,,,,,,,1,265,2019_Apr_03_1727,Flow_endo_post,3.0.5,60.05500297,
,37,1,95,,,,,,,,,,,,180,90,4.6,right,0,1.099528486,left,,,,,,,,,1,265,2019_Apr_03_1727,Flow_endo_post,3.0.5,60.05500297,
,38,1,96,,,,,,,,,,,,0,0,-4.6,left,0,1.09677019,right,,,,,,,,,1,265,2019_Apr_03_1727,Flow_endo_post,3.0.5,60.05500297,
,39,1,97,,,,,,,,,,,,0,90,-4.6,left,1,1.098168974,left,,,,,,,,,1,265,2019_Apr_03_1727,Flow_endo_post,3.0.5,60.05500297,
,40,1,97,,,,,,,,,,,,180,0,-4.6,left,1,1.098083156,left,,,,,,,,,1,265,2019_Apr_03_1727,Flow_endo_post,3.0.5,60.05500297,
,41,1,97,,,,,,,,,,,,180,90,-4.6,left,1,1.09926279,left,,,,,,,,,1,265,2019_Apr_03_1727,Flow_endo_post,3.0.5,60.05500297,
,42,1,96,,,,,,,,,,,,0,90,4.6,right,0,1.098656731,left,,,,,,,,,1,265,2019_Apr_03_1727,Flow_endo_post,3.0.5,60.05500297,
,43,1,97,,,,,,,,,,,,180,0,-4.6,left,0,1.099846546,right,,,,,,,,,1,265,2019_Apr_03_1727,Flow_endo_post,3.0.5,60.05500297,
,44,1,98,,,,,,,,,,,,0,0,4.6,right,0,1.097919763,left,,,,,,,,,1,265,2019_Apr_03_1727,Flow_endo_post,3.0.5,60.05500297,
,45,1,99,,,,,,,,,,,,0,90,4.6,right,1,1.099546425,right,,,,,,,,,1,265,2019_Apr_03_1727,Flow_endo_post,3.0.5,60.05500297,
,46,1,99,,,,,,,,,,,,0,90,-4.6,left,0,1.098668852,right,,,,,,,,,1,265,2019_Apr_03_1727,Flow_endo_post,3.0.5,60.05500297,
,47,1,100,,,,,,,,,,,,0,0,4.6,right,0,1.099139154,left,,,,,,,,,1,265,2019_Apr_03_1727,Flow_endo_post,3.0.5,60.05500297,
,48,1,101,,,,,,,,,,,,0,90,4.6,right,1,1.09791346,right,,,,,,,,,1,265,2019_Apr_03_1727,Flow_endo_post,3.0.5,60.05500297,
,49,1,101,,,,,,,,,,,,0,90,4.6,right,1,1.097385946,right,,,,,,,,,1,265,2019_Apr_03_1727,Flow_endo_post,3.0.5,60.05500297,
,50,1,101,,,,,,,,,,,,180,0,-4.6,left,0,1.097916369,right,,,,,,,,,1,265,2019_Apr_03_1727,Flow_endo_post,3.0.5,60.05500297,
,51,1,102,,,,,,,,,,,,0,0,-4.6,left,1,1.098245095,left,,,,,,,,,1,265,2019_Apr_03_1727,Flow_endo_post,3.0.5,60.05500297,
,52,1,102,,,,,,,,,,,,180,0,4.6,right,0,1.099183275,left,,,,,,,,,1,265,2019_Apr_03_1727,Flow_endo_post,3.0.5,60.05500297,
,53,1,103,,,,,,,,,,,,180,90,4.6,right,1,1.098796367,right,,,,,,,,,1,265,2019_Apr_03_1727,Flow_endo_post,3.0.5,60.05500297,
,54,1,103,,,,,,,,,,,,0,0,-4.6,left,0,1.09872267,right,,,,,,,,,1,265,2019_Apr_03_1727,Flow_endo_post,3.0.5,60.05500297,
,55,1,104,,,,,,,,,,,,180,0,-4.6,left,1,1.097984247,left,,,,,,,,,1,265,2019_Apr_03_1727,Flow_endo_post,3.0.5,60.05500297,
,56,1,104,,,,,,,,,,,,0,0,-4.6,left,1,1.099624001,left,,,,,,,,,1,265,2019_Apr_03_1727,Flow_endo_post,3.0.5,60.05500297,
,57,1,104,,,,,,,,,,,,180,0,-4.6,left,1,1.099068851,left,,,,,,,,,1,265,2019_Apr_03_1727,Flow_endo_post,3.0.5,60.05500297,
,58,1,103,,,,,,,,,,,,0,0,-4.6,left,1,1.099344729,left,,,,,,,,,1,265,2019_Apr_03_1727,Flow_endo_post,3.0.5,60.05500297,
,59,1,103,,,,,,,,,,,,0,90,-4.6,left,1,1.097798066,left,,,,,,,,,1,265,2019_Apr_03_1727,Flow_endo_post,3.0.5,60.05500297,
,60,1,103,,,,,,,,,,,,0,0,4.6,right,0,1.097000007,left,,,,,,,,,1,265,2019_Apr_03_1727,Flow_endo_post,3.0.5,60.05500297,
,61,1,104,,,,,,,,,,,,0,90,-4.6,left,0,0.483907191,right,,,,,,,,,1,265,2019_Apr_03_1727,Flow_endo_post,3.0.5,60.05500297,
,62,1,105,,,,,,,,,,,,180,90,-4.6,left,1,0.334642098,left,,,,,,,,,1,265,2019_Apr_03_1727,Flow_endo_post,3.0.5,60.05500297,
,63,1,105,,,,,,,,,,,,0,90,4.6,right,1,0.283679797,right,,,,,,,,,1,265,2019_Apr_03_1727,Flow_endo_post,3.0.5,60.05500297,
,64,1,105,,,,,,,,,,,,180,0,4.6,right,1,0.334192644,right,,,,,,,,,1,265,2019_Apr_03_1727,Flow_endo_post,3.0.5,60.05500297,
,65,1,104,,,,,,,,,,,,180,0,-4.6,left,1,0.317521654,left,,,,,,,,,1,265,2019_Apr_03_1727,Flow_endo_post,3.0.5,60.05500297,
,66,1,104,,,,,,,,,,,,180,90,-4.6,left,1,0.300341575,left,,,,,,,,,1,265,2019_Apr_03_1727,Flow_endo_post,3.0.5,60.05500297,
,67,1,104,,,,,,,,,,,,180,90,4.6,right,1,0.366096082,right,,,,,,,,,1,265,2019_Apr_03_1727,Flow_endo_post,3.0.5,60.05500297,
,68,1,103,,,,,,,,,,,,0,90,-4.6,left,1,0.250532241,left,,,,,,,,,1,265,2019_Apr_03_1727,Flow_endo_post,3.0.5,60.05500297,
,69,1,103,,,,,,,,,,,,180,0,4.6,right,1,0.317850381,right,,,,,,,,,1,265,2019_Apr_03_1727,Flow_endo_post,3.0.5,60.05500297,
,70,1,103,,,,,,,,,,,,180,0,4.6,right,1,0.284473492,right,,,,,,,,,1,265,2019_Apr_03_1727,Flow_endo_post,3.0.5,60.05500297,
,71,1,102,,,,,,,,,,,,180,90,4.6,right,1,0.284343553,right,,,,,,,,,1,265,2019_Apr_03_1727,Flow_endo_post,3.0.5,60.05500297,
,72,1,102,,,,,,,,,,,,0,0,-4.6,left,1,0.369333893,left,,,,,,,,,1,265,2019_Apr_03_1727,Flow_endo_post,3.0.5,60.05500297,
,73,1,102,,,,,,,,,,,,0,90,4.6,right,0,0.284293129,left,,,,,,,,,1,265,2019_Apr_03_1727,Flow_endo_post,3.0.5,60.05500297,
,74,1,103,,,,,,,,,,,,180,0,-4.6,left,1,0.367664078,left,,,,,,,,,1,265,2019_Apr_03_1727,Flow_endo_post,3.0.5,60.05500297,
,75,1,103,,,,,,,,,,,,0,0,-4.6,left,1,0.283648767,left,,,,,,,,,1,265,2019_Apr_03_1727,Flow_endo_post,3.0.5,60.05500297,
,76,1,103,,,,,,,,,,,,0,0,-4.6,left,1,0.30054715,left,,,,,,,,,1,265,2019_Apr_03_1727,Flow_endo_post,3.0.5,60.05500297,
,77,1,102,,,,,,,,,,,,0,0,-4.6,left,1,0.267012201,left,,,,,,,,,1,265,2019_Apr_03_1727,Flow_endo_post,3.0.5,60.05500297,
,78,1,102,,,,,,,,,,,,0,90,4.6,right,0,0.217790017,left,,,,,,,,,1,265,2019_Apr_03_1727,Flow_endo_post,3.0.5,60.05500297,
,79,1,103,,,,,,,,,,,,180,0,-4.6,left,0,0.333785857,right,,,,,,,,,1,265,2019_Apr_03_1727,Flow_endo_post,3.0.5,60.05500297,
,80,1,104,,,,,,,,,,,,0,90,-4.6,left,1,1.098583519,left,,,,,,,,,1,265,2019_Apr_03_1727,Flow_endo_post,3.0.5,60.05500297,
,81,1,104,,,,,,,,,,,,180,0,4.6,right,0,1.098449701,left,,,,,,,,,1,265,2019_Apr_03_1727,Flow_endo_post,3.0.5,60.05500297,
,82,1,105,,,,,,,,,,,,180,0,4.6,right,1,1.099297699,right,,,,,,,,,1,265,2019_Apr_03_1727,Flow_endo_post,3.0.5,60.05500297,
,83,1,105,,,,,,,,,,,,180,90,-4.6,left,0,1.09926279,right,,,,,,,,,1,265,2019_Apr_03_1727,Flow_endo_post,3.0.5,60.05500297,
,84,1,106,,,,,,,,,,,,0,0,-4.6,left,1,1.099873212,left,,,,,,,,,1,265,2019_Apr_03_1727,Flow_endo_post,3.0.5,60.05500297,
,85,1,106,,,,,,,,,,,,180,0,-4.6,left,1,1.099014548,left,,,,,,,,,1,265,2019_Apr_03_1727,Flow_endo_post,3.0.5,60.05500297,
,86,1,106,,,,,,,,,,,,0,0,4.6,right,0,1.098621337,left,,,,,,,,,1,265,2019_Apr_03_1727,Flow_endo_post,3.0.5,60.05500297,
,87,1,107,,,,,,,,,,,,180,90,-4.6,left,0,1.099384971,right,,,,,,,,,1,265,2019_Apr_03_1727,Flow_endo_post,3.0.5,60.05500297,
,88,1,108,,,,,,,,,,,,180,90,4.6,right,0,1.09880073,left,,,,,,,,,1,265,2019_Apr_03_1727,Flow_endo_post,3.0.5,60.05500297,
,89,1,109,,,,,,,,,,,,180,90,4.6,right,1,1.099219638,right,,,,,,,,,1,265,2019_Apr_03_1727,Flow_endo_post,3.0.5,60.05500297,
,90,1,109,,,,,,,,,,,,0,90,-4.6,left,0,1.098494307,right,,,,,,,,,1,265,2019_Apr_03_1727,Flow_endo_post,3.0.5,60.05500297,
,91,1,110,,,,,,,,,,,,0,0,-4.6,left,0,1.098528731,right,,,,,,,,,1,265,2019_Apr_03_1727,Flow_endo_post,3.0.5,60.05500297,
,92,1,111,,,,,,,,,,,,180,0,-4.6,left,1,1.099355396,left,,,,,,,,,1,265,2019_Apr_03_1727,Flow_endo_post,3.0.5,60.05500297,
,93,1,111,,,,,,,,,,,,0,90,4.6,right,0,1.098407034,left,,,,,,,,,1,265,2019_Apr_03_1727,Flow_endo_post,3.0.5,60.05500297,
,94,1,112,,,,,,,,,,,,180,90,-4.6,left,0,1.098854063,right,,,,,,,,,1,265,2019_Apr_03_1727,Flow_endo_post,3.0.5,60.05500297,
,95,1,113,,,,,,,,,,,,180,90,-4.6,left,1,1.099078548,left,,,,,,,,,1,265,2019_Apr_03_1727,Flow_endo_post,3.0.5,60.05500297,
,96,1,113,,,,,,,,,,,,180,90,4.6,right,0,1.098926306,left,,,,,,,,,1,265,2019_Apr_03_1727,Flow_endo_post,3.0.5,60.05500297,
,97,1,114,,,,,,,,,,,,0,90,4.6,right,1,1.09916679,right,,,,,,,,,1,265,2019_Apr_03_1727,Flow_endo_post,3.0.5,60.05500297,
,98,1,114,,,,,,,,,,,,180,0,4.6,right,1,1.098194186,right,,,,,,,,,1,265,2019_Apr_03_1727,Flow_endo_post,3.0.5,60.05500297,
,99,1,114,,,,,,,,,,,,180,90,-4.6,left,0,1.098600488,right,,,,,,,,,1,265,2019_Apr_03_1727,Flow_endo_post,3.0.5,60.05500297,
,100,1,115,,,,,,,,,,,,0,90,-4.6,left,1,1.098633943,left,,,,,,,,,1,265,2019_Apr_03_1727,Flow_endo_post,3.0.5,60.05500297,
,101,1,115,,,,,,,,,,,,180,0,-4.6,left,1,1.099833455,left,,,,,,,,,1,265,2019_Apr_03_1727,Flow_endo_post,3.0.5,60.05500297,
,102,1,115,,,,,,,,,,,,0,90,4.6,right,0,1.097169219,left,,,,,,,,,1,265,2019_Apr_03_1727,Flow_endo_post,3.0.5,60.05500297,
,103,1,116,,,,,,,,,,,,180,0,4.6,right,1,1.098382307,right,,,,,,,,,1,265,2019_Apr_03_1727,Flow_endo_post,3.0.5,60.05500297,
,104,1,116,,,,,,,,,,,,180,0,4.6,right,1,1.098282428,right,,,,,,,,,1,265,2019_Apr_03_1727,Flow_endo_post,3.0.5,60.05500297,
,105,1,116,,,,,,,,,,,,180,0,4.6,right,1,1.099633213,right,,,,,,,,,1,265,2019_Apr_03_1727,Flow_endo_post,3.0.5,60.05500297,
,106,1,115,,,,,,,,,,,,0,90,4.6,right,1,1.097892126,right,,,,,,,,,1,265,2019_Apr_03_1727,Flow_endo_post,3.0.5,60.05500297,
,107,1,115,,,,,,,,,,,,180,90,-4.6,left,0,1.098638306,right,,,,,,,,,1,265,2019_Apr_03_1727,Flow_endo_post,3.0.5,60.05500297,
,108,1,116,,,,,,,,,,,,180,0,4.6,right,0,1.099054305,left,,,,,,,,,1,265,2019_Apr_03_1727,Flow_endo_post,3.0.5,60.05500297,
,109,1,117,,,,,,,,,,,,0,90,-4.6,left,0,1.09924679,right,,,,,,,,,1,265,2019_Apr_03_1727,Flow_endo_post,3.0.5,60.05500297,
,110,1,118,,,,,,,,,,,,0,90,4.6,right,0,1.099302547,left,,,,,,,,,1,265,2019_Apr_03_1727,Flow_endo_post,3.0.5,60.05500297,
,111,1,119,,,,,,,,,,,,180,0,-4.6,left,0,1.098205338,right,,,,,,,,,1,265,2019_Apr_03_1727,Flow_endo_post,3.0.5,60.05500297,
,112,1,120,,,,,,,,,,,,180,0,4.6,right,0,1.099012124,left,,,,,,,,,1,265,2019_Apr_03_1727,Flow_endo_post,3.0.5,60.05500297,
,113,1,121,,,,,,,,,,,,180,0,4.6,right,1,1.09875273,right,,,,,,,,,1,265,2019_Apr_03_1727,Flow_endo_post,3.0.5,60.05500297,
,114,1,121,,,,,,,,,,,,180,90,-4.6,left,0,1.098383761,right,,,,,,,,,1,265,2019_Apr_03_1727,Flow_endo_post,3.0.5,60.05500297,
,115,1,122,,,,,,,,,,,,180,0,4.6,right,0,1.09919685,left,,,,,,,,,1,265,2019_Apr_03_1727,Flow_endo_post,3.0.5,60.05500297,
,116,1,123,,,,,,,,,,,,180,0,4.6,right,1,1.098551519,right,,,,,,,,,1,265,2019_Apr_03_1727,Flow_endo_post,3.0.5,60.05500297,
,117,1,123,,,,,,,,,,,,180,0,-4.6,left,0,1.097724369,right,,,,,,,,,1,265,2019_Apr_03_1727,Flow_endo_post,3.0.5,60.05500297,
,118,1,124,,,,,,,,,,,,180,0,-4.6,left,1,1.099599274,left,,,,,,,,,1,265,2019_Apr_03_1727,Flow_endo_post,3.0.5,60.05500297,
,119,1,124,,,,,,,,,,,,180,90,-4.6,left,1,1.098587882,left,,,,,,,,,1,265,2019_Apr_03_1727,Flow_endo_post,3.0.5,60.05500297,
,120,1,124,,,,,,,,,,,,0,0,-4.6,left,1,1.098701821,left,,,,,,,,,1,265,2019_Apr_03_1727,Flow_endo_post,3.0.5,60.05500297,
,,,,0,1,81,,,,,,,,,,0,-4.6,left,,,,4.6,1,1.098591761,left,,,,,1,265,2019_Apr_03_1727,Flow_endo_post,3.0.5,60.05500297,
,,,,1,1,80,,,,,,,,,,0,-4.6,left,,,,4.6,1,0.901863511,left,,,,,1,265,2019_Apr_03_1727,Flow_endo_post,3.0.5,60.05500297,
,,,,2,1,79,,,,,,,,,,90,-4.6,left,,,,-4.6,1,0.334043796,left,,,,,1,265,2019_Apr_03_1727,Flow_endo_post,3.0.5,60.05500297,
,,,,3,1,78,,,,,,,,,,90,4.6,right,,,,4.6,1,0.267358382,right,,,,,1,265,2019_Apr_03_1727,Flow_endo_post,3.0.5,60.05500297,
,,,,4,1,77,,,,,,,,,,90,4.6,right,,,,4.6,1,0.217638745,right,,,,,1,265,2019_Apr_03_1727,Flow_endo_post,3.0.5,60.05500297,
,,,,5,1,76,,,,,,,,,,90,4.6,right,,,,4.6,1,0.185050703,right,,,,,1,265,2019_Apr_03_1727,Flow_endo_post,3.0.5,60.05500297,
,,,,6,1,75,,,,,,,,,,0,4.6,right,,,,4.6,1,0.201638784,right,,,,,1,265,2019_Apr_03_1727,Flow_endo_post,3.0.5,60.05500297,
,,,,7,1,74,,,,,,,,,,90,4.6,right,,,,-4.6,0,0.267343837,left,,,,,1,265,2019_Apr_03_1727,Flow_endo_post,3.0.5,60.05500297,
,,,,8,1,75,,,,,,,,,,0,-4.6,left,,,,4.6,0,0.967809533,right,,,,,1,265,2019_Apr_03_1727,Flow_endo_post,3.0.5,60.05500297,
,,,,9,1,76,,,,,,,,,,0,-4.6,left,,,,4.6,1,1.233385616,left,,,,,1,265,2019_Apr_03_1727,Flow_endo_post,3.0.5,60.05500297,
,,,,10,1,76,,,,,,,,,,90,-4.6,left,,,,-4.6,1,0.501012119,left,,,,,1,265,2019_Apr_03_1727,Flow_endo_post,3.0.5,60.05500297,
,,,,11,1,76,,,,,,,,,,90,-4.6,left,,,,-4.6,1,0.418775712,left,,,,,1,265,2019_Apr_03_1727,Flow_endo_post,3.0.5,60.05500297,
,,,,12,1,75,,,,,,,,,,0,4.6,right,,,,4.6,1,0.450717938,right,,,,,1,265,2019_Apr_03_1727,Flow_endo_post,3.0.5,60.05500297,
,,,,13,1,75,,,,,,,,,,90,4.6,right,,,,-4.6,1,0.417582988,right,,,,,1,265,2019_Apr_03_1727,Flow_endo_post,3.0.5,60.05500297,
,,,,14,1,75,,,,,,,,,,90,-4.6,left,,,,4.6,0,0.549738304,right,,,,,1,265,2019_Apr_03_1727,Flow_endo_post,3.0.5,60.05500297,
,,,,15,1,76,,,,,,,,,,90,-4.6,left,,,,-4.6,1,0.484563674,left,,,,,1,265,2019_Apr_03_1727,Flow_endo_post,3.0.5,60.05500297,
,,,,16,1,76,,,,,,,,,,0,4.6,right,,,,4.6,1,0.366780202,right,,,,,1,265,2019_Apr_03_1727,Flow_endo_post,3.0.5,60.05500297,
,,,,17,1,76,,,,,,,,,,90,-4.6,left,,,,4.6,1,0.50032703,left,,,,,1,265,2019_Apr_03_1727,Flow_endo_post,3.0.5,60.05500297,
,,,,18,1,75,,,,,,,,,,0,4.6,right,,,,4.6,1,0.433995069,right,,,,,1,265,2019_Apr_03_1727,Flow_endo_post,3.0.5,60.05500297,
,,,,19,1,75,,,,,,,,,,90,-4.6,left,,,,-4.6,1,0.316776444,left,,,,,1,265,2019_Apr_03_1727,Flow_endo_post,3.0.5,60.05500297,
,,,,20,1,75,,,,,,,,,,0,4.6,right,,,,-4.6,0,0.683517373,left,,,,,1,265,2019_Apr_03_1727,Flow_endo_post,3.0.5,60.05500297,
,,,,21,1,76,,,,,,,,,,0,-4.6,left,,,,4.6,1,0.583493373,left,,,,,1,265,2019_Apr_03_1727,Flow_endo_post,3.0.5,60.05500297,
,,,,22,1,76,,,,,,,,,,0,-4.6,left,,,,-4.6,1,0.317318503,left,,,,,1,265,2019_Apr_03_1727,Flow_endo_post,3.0.5,60.05500297,
,,,,23,1,76,,,,,,,,,,0,-4.6,left,,,,4.6,1,0.400896483,left,,,,,1,265,2019_Apr_03_1727,Flow_endo_post,3.0.5,60.05500297,
,,,,24,1,75,,,,,,,,,,0,4.6,right,,,,4.6,1,0.417262988,right,,,,,1,265,2019_Apr_03_1727,Flow_endo_post,3.0.5,60.05500297,
,,,,25,1,75,,,,,,,,,,90,-4.6,left,,,,-4.6,1,0.317438261,left,,,,,1,265,2019_Apr_03_1727,Flow_endo_post,3.0.5,60.05500297,
,,,,26,1,75,,,,,,,,,,0,-4.6,left,,,,4.6,1,0.467574139,left,,,,,1,265,2019_Apr_03_1727,Flow_endo_post,3.0.5,60.05500297,
,,,,27,1,74,,,,,,,,,,0,4.6,right,,,,4.6,1,0.450055636,right,,,,,1,265,2019_Apr_03_1727,Flow_endo_post,3.0.5,60.05500297,
,,,,28,1,74,,,,,,,,,,0,-4.6,left,,,,4.6,0,0.234686461,right,,,,,1,265,2019_Apr_03_1727,Flow_endo_post,3.0.5,60.05500297,
,,,,29,1,75,,,,,,,,,,0,-4.6,left,,,,-4.6,1,0.399593698,left,,,,,1,265,2019_Apr_03_1727,Flow_endo_post,3.0.5,60.05500297,
,,,,30,1,75,,,,,,,,,,0,4.6,right,,,,4.6,1,0.35117733,right,,,,,1,265,2019_Apr_03_1727,Flow_endo_post,3.0.5,60.05500297,
,,,,31,1,75,,,,,,,,,,0,-4.6,left,,,,-4.6,1,0.318258622,left,,,,,1,265,2019_Apr_03_1727,Flow_endo_post,3.0.5,60.05500297,
,,,,32,1,74,,,,,,,,,,0,4.6,right,,,,-4.6,1,0.535356278,right,,,,,1,265,2019_Apr_03_1727,Flow_endo_post,3.0.5,60.05500297,
,,,,33,1,74,,,,,,,,,,90,-4.6,left,,,,4.6,1,0.718257653,left,,,,,1,265,2019_Apr_03_1727,Flow_endo_post,3.0.5,60.05500297,
,,,,34,1,74,,,,,,,,,,90,-4.6,left,,,,-4.6,1,0.317317534,left,,,,,1,265,2019_Apr_03_1727,Flow_endo_post,3.0.5,60.05500297,
,,,,35,1,73,,,,,,,,,,0,-4.6,left,,,,-4.6,1,0.333690827,left,,,,,1,265,2019_Apr_03_1727,Flow_endo_post,3.0.5,60.05500297,
,,,,36,1,73,,,,,,,,,,90,4.6,right,,,,-4.6,1,0.366597899,right,,,,,1,265,2019_Apr_03_1727,Flow_endo_post,3.0.5,60.05500297,
,,,,37,1,73,,,,,,,,,,0,-4.6,left,,,,-4.6,1,0.31921862,left,,,,,1,265,2019_Apr_03_1727,Flow_endo_post,3.0.5,60.05500297,
,,,,38,1,72,,,,,,,,,,90,-4.6,left,,,,-4.6,1,0.316652323,left,,,,,1,265,2019_Apr_03_1727,Flow_endo_post,3.0.5,60.05500297,
,,,,39,1,72,,,,,,,,,,90,-4.6,left,,,,4.6,0,0.566947959,right,,,,,1,265,2019_Apr_03_1727,Flow_endo_post,3.0.5,60.05500297,
,,,,40,1,73,,,,,,,,,,90,-4.6,left,,,,-4.6,1,0.300835634,left,,,,,1,265,2019_Apr_03_1727,Flow_endo_post,3.0.5,60.05500297,
,,,,41,1,73,,,,,,,,,,0,4.6,right,,,,4.6,1,0.351306785,right,,,,,1,265,2019_Apr_03_1727,Flow_endo_post,3.0.5,60.05500297,
,,,,42,1,73,,,,,,,,,,90,-4.6,left,,,,4.6,1,0.350169818,left,,,,,1,265,2019_Apr_03_1727,Flow_endo_post,3.0.5,60.05500297,
,,,,43,1,72,,,,,,,,,,90,-4.6,left,,,,4.6,1,0.366881535,left,,,,,1,265,2019_Apr_03_1727,Flow_endo_post,3.0.5,60.05500297,
,,,,44,1,72,,,,,,,,,,90,-4.6,left,,,,4.6,1,0.434461007,left,,,,,1,265,2019_Apr_03_1727,Flow_endo_post,3.0.5,60.05500297,
,,,,45,1,72,,,,,,,,,,90,4.6,right,,,,-4.6,0,1.152216358,left,,,,,1,265,2019_Apr_03_1727,Flow_endo_post,3.0.5,60.05500297,
,,,,46,1,73,,,,,,,,,,90,-4.6,left,,,,4.6,0,0.766038385,right,,,,,1,265,2019_Apr_03_1727,Flow_endo_post,3.0.5,60.05500297,
,,,,47,1,74,,,,,,,,,,90,4.6,right,,,,-4.6,1,0.735110945,right,,,,,1,265,2019_Apr_03_1727,Flow_endo_post,3.0.5,60.05500297,
,,,,48,1,74,,,,,,,,,,90,4.6,right,,,,4.6,1,0.483713252,right,,,,,1,265,2019_Apr_03_1727,Flow_endo_post,3.0.5,60.05500297,
,,,,49,1,74,,,,,,,,,,0,4.6,right,,,,-4.6,1,0.550570786,right,,,,,1,265,2019_Apr_03_1727,Flow_endo_post,3.0.5,60.05500297,
,,,,50,1,73,,,,,,,,,,0,4.6,right,,,,-4.6,1,0.95181248,right,,,,,1,265,2019_Apr_03_1727,Flow_endo_post,3.0.5,60.05500297,
,,,,51,1,73,,,,,,,,,,0,4.6,right,,,,4.6,1,0.3351284,right,,,,,1,265,2019_Apr_03_1727,Flow_endo_post,3.0.5,60.05500297,
,,,,52,1,73,,,,,,,,,,90,4.6,right,,,,4.6,1,0.417153413,right,,,,,1,265,2019_Apr_03_1727,Flow_endo_post,3.0.5,60.05500297,
,,,,53,1,72,,,,,,,,,,90,-4.6,left,,,,4.6,1,0.63434125,left,,,,,1,265,2019_Apr_03_1727,Flow_endo_post,3.0.5,60.05500297,
,,,,54,1,72,,,,,,,,,,90,-4.6,left,,,,-4.6,1,0.400467878,left,,,,,1,265,2019_Apr_03_1727,Flow_endo_post,3.0.5,60.05500297,
,,,,55,1,72,,,,,,,,,,90,-4.6,left,,,,-4.6,1,0.399976727,left,,,,,1,265,2019_Apr_03_1727,Flow_endo_post,3.0.5,60.05500297,
,,,,56,1,71,,,,,,,,,,0,4.6,right,,,,4.6,1,0.233481131,right,,,,,1,265,2019_Apr_03_1727,Flow_endo_post,3.0.5,60.05500297,
,,,,57,1,71,,,,,,,,,,90,-4.6,left,,,,-4.6,1,0.367783351,left,,,,,1,265,2019_Apr_03_1727,Flow_endo_post,3.0.5,60.05500297,
,,,,58,1,71,,,,,,,,,,0,-4.6,left,,,,-4.6,1,0.384141129,left,,,,,1,265,2019_Apr_03_1727,Flow_endo_post,3.0.5,60.05500297,
,,,,59,1,70,,,,,,,,,,90,4.6,right,,,,-4.6,1,0.399999515,right,,,,,1,265,2019_Apr_03_1727,Flow_endo_post,3.0.5,60.05500297,
,,,,60,1,70,,,,,,,,,,0,4.6,right,,,,-4.6,1,0.41709814,right,,,,,1,265,2019_Apr_03_1727,Flow_endo_post,3.0.5,60.05500297,
,,,,61,1,70,,,,,,,,,,0,-4.6,left,,,,4.6,1,0.634877006,left,,,,,1,265,2019_Apr_03_1727,Flow_endo_post,3.0.5,60.05500297,
,,,,62,1,69,,,,,,,,,,90,-4.6,left,,,,-4.6,1,0.401888965,left,,,,,1,265,2019_Apr_03_1727,Flow_endo_post,3.0.5,60.05500297,
,,,,63,1,69,,,,,,,,,,0,4.6,right,,,,-4.6,0,0.637222213,left,,,,,1,265,2019_Apr_03_1727,Flow_endo_post,3.0.5,60.05500297,
,,,,64,1,70,,,,,,,,,,90,-4.6,left,,,,-4.6,1,0.33344307,left,,,,,1,265,2019_Apr_03_1727,Flow_endo_post,3.0.5,60.05500297,
,,,,65,1,70,,,,,,,,,,0,4.6,right,,,,4.6,1,0.400460605,right,,,,,1,265,2019_Apr_03_1727,Flow_endo_post,3.0.5,60.05500297,
,,,,66,1,70,,,,,,,,,,90,-4.6,left,,,,-4.6,1,0.317046504,left,,,,,1,265,2019_Apr_03_1727,Flow_endo_post,3.0.5,60.05500297,
,,,,,,,,,,,,,,,,,,,,,,,,,,space,10.36639863,,,1,265,2019_Apr_03_1727,Flow_endo_post,3.0.5,60.05500297,
My state (body feelings, emotions and thoughts) during the task on the computer was similar to the state I had during my music performance.,,,,,,,0,0,0,0,,,,,,,,,,,,,,,,,,1,17.485,1,265,2019_Apr_03_1727,Flow_endo_post,3.0.5,60.05500297
It was no effort to keep my mind on what was happening.,,,,,,,,,,,0,0,0,4,,,,,,,,,,,,,,2,7.865,1,265,2019_Apr_03_1727,Flow_endo_post,3.0.5,60.05500297,
I had a strong sense of what I wanted to accomplish.,,,,,,,,,,,0,1,1,0,,,,,,,,,,,,,,5,2.187,1,265,2019_Apr_03_1727,Flow_endo_post,3.0.5,60.05500297,
The way time passed seemed to be different from normal.,,,,,,,,,,,0,2,2,24,,,,,,,,,,,,,,5,3.091,1,265,2019_Apr_03_1727,Flow_endo_post,3.0.5,60.05500297,
I had total concentration.,,,,,,,,,,,0,3,3,5,,,,,,,,,,,,,,2,2.11,1,265,2019_Apr_03_1727,Flow_endo_post,3.0.5,60.05500297,
I was not worried about what others might be thinking of me.,,,,,,,,,,,0,4,4,16,,,,,,,,,,,,,,5,5.011,1,265,2019_Apr_03_1727,Flow_endo_post,3.0.5,60.05500297,
Time seemed to alter (either slows down or speeds up).,,,,,,,,,,,0,5,5,23,,,,,,,,,,,,,,5,2.193,1,265,2019_Apr_03_1727,Flow_endo_post,3.0.5,60.05500297,
I felt that I had everything under control.,,,,,,,,,,,0,6,6,13,,,,,,,,,,,,,,5,2.902,1,265,2019_Apr_03_1727,Flow_endo_post,3.0.5,60.05500297,
The challenge and my skills were at an equally high level.,,,,,,,,,,,0,7,7,10,,,,,,,,,,,,,,2,10.873,1,265,2019_Apr_03_1727,Flow_endo_post,3.0.5,60.05500297,
It was really clear to me how my performance was going.,,,,,,,,,,,0,8,8,7,,,,,,,,,,,,,,5,3.761,1,265,2019_Apr_03_1727,Flow_endo_post,3.0.5,60.05500297,
I did things spontaneously without having to think.,,,,,,,,,,,0,9,9,22,,,,,,,,,,,,,,5,4.699,1,265,2019_Apr_03_1727,Flow_endo_post,3.0.5,60.05500297,
I was challenged, but I believe my skills will allow me to meet that challenge.,,,,,,,,,,,0,10,10,9,,,,,,,,,,,,,,5,3.368,1,265,2019_Apr_03_1727,Flow_endo_post,3.0.5,60.05500297
I was not concerned with how I was presenting myself.,,,,,,,,,,,0,11,11,15,,,,,,,,,,,,,,5,3.969,1,265,2019_Apr_03_1727,Flow_endo_post,3.0.5,60.05500297,
The experience left me feeling great.,,,,,,,,,,,0,12,12,18,,,,,,,,,,,,,,3,2.648,1,265,2019_Apr_03_1727,Flow_endo_post,3.0.5,60.05500297,
My goals were clearly defined. ,,,,,,,,,,,0,13,13,2,,,,,,,,,,,,,,5,2.352,1,265,2019_Apr_03_1727,Flow_endo_post,3.0.5,60.05500297,
I performed automatically without having to think about it.,,,,,,,,,,,0,14,14,25,,,,,,,,,,,,,,2,2.633,1,265,2019_Apr_03_1727,Flow_endo_post,3.0.5,60.05500297,
I felt just the right amount of challenge. ,,,,,,,,,,,0,15,15,11,,,,,,,,,,,,,,5,2.595,1,265,2019_Apr_03_1727,Flow_endo_post,3.0.5,60.05500297,
I really enjoyed the experience.,,,,,,,,,,,0,16,16,17,,,,,,,,,,,,,,4,2.243,1,265,2019_Apr_03_1727,Flow_endo_post,3.0.5,60.05500297,
I lost my normal awareness of time.,,,,,,,,,,,0,17,17,20,,,,,,,,,,,,,,2,4.267,1,265,2019_Apr_03_1727,Flow_endo_post,3.0.5,60.05500297,
I was not concerned with how others might be evaluating me.,,,,,,,,,,,0,18,18,14,,,,,,,,,,,,,,5,3.136,1,265,2019_Apr_03_1727,Flow_endo_post,3.0.5,60.05500297,
The experience was extremely rewarding.,,,,,,,,,,,0,19,19,19,,,,,,,,,,,,,,3,2.413,1,265,2019_Apr_03_1727,Flow_endo_post,3.0.5,60.05500297,
I had a good idea while I was performing about how well I was doing.,,,,,,,,,,,0,20,20,8,,,,,,,,,,,,,,5,2.907,1,265,2019_Apr_03_1727,Flow_endo_post,3.0.5,60.05500297,
Things just seemed to happen automatically.,,,,,,,,,,,0,21,21,21,,,,,,,,,,,,,,1,3.594,1,265,2019_Apr_03_1727,Flow_endo_post,3.0.5,60.05500297,
I had no difficulty concentrating.,,,,,,,,,,,0,22,22,6,,,,,,,,,,,,,,5,2.388,1,265,2019_Apr_03_1727,Flow_endo_post,3.0.5,60.05500297,
I felt as though I had everything under control.,,,,,,,,,,,0,23,23,12,,,,,,,,,,,,,,5,1.294,1,265,2019_Apr_03_1727,Flow_endo_post,3.0.5,60.05500297,
My attention was focused entirely on what I was doing.,,,,,,,,,,,0,24,24,3,,,,,,,,,,,,,,4,2.954,1,265,2019_Apr_03_1727,Flow_endo_post,3.0.5,60.05500297,
I knew what I want to achieve.,,,,,,,,,,,0,25,25,1,,,,,,,,,,,,,,5,1.475,1,265,2019_Apr_03_1727,Flow_endo_post,3.0.5,60.05500297,
