Stair.thisTrialN,Stair.stepSize,Stair.intensity,Stair2.thisTrialN,Stair2.stepSize,Stair2.intensity,cueOri,targetXOri,targetXPos,CorrectAns,Stair.response,keyPress.rt,keyPress.rl,cueExoPos,Stair2.response,keyPress_2.rt,keyPress_2.rl,Time_pas_Ans.response,Time_pas_Ans.rt,Session,Participant,date,expName,psychopyVersion,frameRate,
0,1,81,,,,180,90,-4.6,left,1,0.30378965199999186,left,,,,,,,002,73,2019_Mar_29_1311,Flow_endo_pre,3.0.6,59.65581577090723,
1,1,80,,,,180,90,4.6,right,1,0.40200028000001,right,,,,,,,002,73,2019_Mar_29_1311,Flow_endo_pre,3.0.6,59.65581577090723,
2,1,79,,,,180,90,4.6,right,1,0.6186879640000029,right,,,,,,,002,73,2019_Mar_29_1311,Flow_endo_pre,3.0.6,59.65581577090723,
3,1,78,,,,0,0,4.6,right,1,0.618654724999999,right,,,,,,,002,73,2019_Mar_29_1311,Flow_endo_pre,3.0.6,59.65581577090723,
4,1,77,,,,0,0,-4.6,left,1,1.2863144539999922,left,,,,,,,002,73,2019_Mar_29_1311,Flow_endo_pre,3.0.6,59.65581577090723,
5,1,76,,,,0,90,4.6,right,1,0.5690525890000089,right,,,,,,,002,73,2019_Mar_29_1311,Flow_endo_pre,3.0.6,59.65581577090723,
6,1,75,,,,180,90,-4.6,left,1,0.41832328000000985,left,,,,,,,002,73,2019_Mar_29_1311,Flow_endo_pre,3.0.6,59.65581577090723,
7,1,74,,,,180,90,4.6,right,1,0.5014362449999936,right,,,,,,,002,73,2019_Mar_29_1311,Flow_endo_pre,3.0.6,59.65581577090723,
8,1,73,,,,0,0,4.6,right,1,0.5695107930000063,right,,,,,,,002,73,2019_Mar_29_1311,Flow_endo_pre,3.0.6,59.65581577090723,
9,1,72,,,,180,90,4.6,right,1,0.8515878550000053,right,,,,,,,002,73,2019_Mar_29_1311,Flow_endo_pre,3.0.6,59.65581577090723,
10,1,71,,,,0,90,4.6,right,0,0.45258576599999856,left,,,,,,,002,73,2019_Mar_29_1311,Flow_endo_pre,3.0.6,59.65581577090723,
11,1,72,,,,0,0,4.6,right,1,0.5688710100000094,right,,,,,,,002,73,2019_Mar_29_1311,Flow_endo_pre,3.0.6,59.65581577090723,
12,1,72,,,,180,0,-4.6,left,1,0.4846703839999975,left,,,,,,,002,73,2019_Mar_29_1311,Flow_endo_pre,3.0.6,59.65581577090723,
13,1,72,,,,180,90,-4.6,left,1,0.6681647659999896,left,,,,,,,002,73,2019_Mar_29_1311,Flow_endo_pre,3.0.6,59.65581577090723,
14,1,71,,,,180,0,-4.6,left,1,0.5195838860000066,left,,,,,,,002,73,2019_Mar_29_1311,Flow_endo_pre,3.0.6,59.65581577090723,
15,1,71,,,,0,0,4.6,right,1,0.7018996259999994,right,,,,,,,002,73,2019_Mar_29_1311,Flow_endo_pre,3.0.6,59.65581577090723,
16,1,71,,,,0,90,4.6,right,1,0.7510783879999963,right,,,,,,,002,73,2019_Mar_29_1311,Flow_endo_pre,3.0.6,59.65581577090723,
17,1,70,,,,0,90,4.6,right,1,0.8673382679999975,right,,,,,,,002,73,2019_Mar_29_1311,Flow_endo_pre,3.0.6,59.65581577090723,
18,1,70,,,,0,0,-4.6,left,1,0.4699537980000059,left,,,,,,,002,73,2019_Mar_29_1311,Flow_endo_pre,3.0.6,59.65581577090723,
19,1,70,,,,180,0,4.6,right,1,0.551874299000005,right,,,,,,,002,73,2019_Mar_29_1311,Flow_endo_pre,3.0.6,59.65581577090723,
20,1,69,,,,0,0,4.6,right,1,0.5660696270000045,right,,,,,,,002,73,2019_Mar_29_1311,Flow_endo_pre,3.0.6,59.65581577090723,
21,1,69,,,,180,0,4.6,right,1,0.5859342600000019,right,,,,,,,002,73,2019_Mar_29_1311,Flow_endo_pre,3.0.6,59.65581577090723,
22,1,69,,,,180,90,-4.6,left,0,0.5689549119999953,right,,,,,,,002,73,2019_Mar_29_1311,Flow_endo_pre,3.0.6,59.65581577090723,
23,1,70,,,,0,0,4.6,right,1,0.5356198989999967,right,,,,,,,002,73,2019_Mar_29_1311,Flow_endo_pre,3.0.6,59.65581577090723,
24,1,70,,,,180,90,4.6,right,1,0.469241499000006,right,,,,,,,002,73,2019_Mar_29_1311,Flow_endo_pre,3.0.6,59.65581577090723,
25,1,70,,,,180,90,-4.6,left,1,0.9174335959999951,left,,,,,,,002,73,2019_Mar_29_1311,Flow_endo_pre,3.0.6,59.65581577090723,
26,1,69,,,,180,90,4.6,right,0,0.7860429280000005,left,,,,,,,002,73,2019_Mar_29_1311,Flow_endo_pre,3.0.6,59.65581577090723,
27,1,70,,,,180,90,4.6,right,0,0.7358774829999959,left,,,,,,,002,73,2019_Mar_29_1311,Flow_endo_pre,3.0.6,59.65581577090723,
28,1,71,,,,0,0,4.6,right,1,0.6697867940000037,right,,,,,,,002,73,2019_Mar_29_1311,Flow_endo_pre,3.0.6,59.65581577090723,
29,1,71,,,,180,0,-4.6,left,1,0.5706463699999915,left,,,,,,,002,73,2019_Mar_29_1311,Flow_endo_pre,3.0.6,59.65581577090723,
30,1,71,,,,180,0,-4.6,left,1,0.4849390519999872,left,,,,,,,002,73,2019_Mar_29_1311,Flow_endo_pre,3.0.6,59.65581577090723,
31,1,70,,,,180,90,4.6,right,1,0.5351303999999857,right,,,,,,,002,73,2019_Mar_29_1311,Flow_endo_pre,3.0.6,59.65581577090723,
32,1,70,,,,180,90,-4.6,left,1,1.0357781540000133,left,,,,,,,002,73,2019_Mar_29_1311,Flow_endo_pre,3.0.6,59.65581577090723,
33,1,70,,,,180,0,4.6,right,0,1.0180124839999962,left,,,,,,,002,73,2019_Mar_29_1311,Flow_endo_pre,3.0.6,59.65581577090723,
34,1,71,,,,180,90,-4.6,left,1,0.6351704850000033,left,,,,,,,002,73,2019_Mar_29_1311,Flow_endo_pre,3.0.6,59.65581577090723,
35,1,71,,,,180,0,-4.6,left,1,0.4509210170000131,left,,,,,,,002,73,2019_Mar_29_1311,Flow_endo_pre,3.0.6,59.65581577090723,
36,1,71,,,,180,90,-4.6,left,1,0.6355385399999989,left,,,,,,,002,73,2019_Mar_29_1311,Flow_endo_pre,3.0.6,59.65581577090723,
37,1,70,,,,0,90,4.6,right,0,0.5023461469999972,left,,,,,,,002,73,2019_Mar_29_1311,Flow_endo_pre,3.0.6,59.65581577090723,
38,1,71,,,,0,90,-4.6,left,1,0.4356363160000001,left,,,,,,,002,73,2019_Mar_29_1311,Flow_endo_pre,3.0.6,59.65581577090723,
39,1,71,,,,180,0,4.6,right,0,0.5541001590000008,left,,,,,,,002,73,2019_Mar_29_1311,Flow_endo_pre,3.0.6,59.65581577090723,
40,1,72,,,,180,0,-4.6,left,1,0.6856554829999766,left,,,,,,,002,73,2019_Mar_29_1311,Flow_endo_pre,3.0.6,59.65581577090723,
41,1,72,,,,0,0,-4.6,left,1,0.5690211399999896,left,,,,,,,002,73,2019_Mar_29_1311,Flow_endo_pre,3.0.6,59.65581577090723,
42,1,72,,,,0,0,4.6,right,0,1.6020711600000084,left,,,,,,,002,73,2019_Mar_29_1311,Flow_endo_pre,3.0.6,59.65581577090723,
43,1,73,,,,0,0,-4.6,left,1,0.5354496120000078,left,,,,,,,002,73,2019_Mar_29_1311,Flow_endo_pre,3.0.6,59.65581577090723,
44,1,73,,,,180,0,4.6,right,0,0.6020562289999987,left,,,,,,,002,73,2019_Mar_29_1311,Flow_endo_pre,3.0.6,59.65581577090723,
45,1,74,,,,180,0,-4.6,left,1,0.6525353210000162,left,,,,,,,002,73,2019_Mar_29_1311,Flow_endo_pre,3.0.6,59.65581577090723,
46,1,74,,,,0,0,4.6,right,0,1.719311093000016,left,,,,,,,002,73,2019_Mar_29_1311,Flow_endo_pre,3.0.6,59.65581577090723,
47,1,75,,,,0,0,4.6,right,1,0.5364473869999813,right,,,,,,,002,73,2019_Mar_29_1311,Flow_endo_pre,3.0.6,59.65581577090723,
48,1,75,,,,0,0,-4.6,left,1,0.6023267449999992,left,,,,,,,002,73,2019_Mar_29_1311,Flow_endo_pre,3.0.6,59.65581577090723,
49,1,75,,,,180,90,4.6,right,1,0.5032083110000087,right,,,,,,,002,73,2019_Mar_29_1311,Flow_endo_pre,3.0.6,59.65581577090723,
50,1,74,,,,180,0,-4.6,left,1,0.5864433749999876,left,,,,,,,002,73,2019_Mar_29_1311,Flow_endo_pre,3.0.6,59.65581577090723,
51,1,74,,,,180,0,-4.6,left,1,0.5684621519999951,left,,,,,,,002,73,2019_Mar_29_1311,Flow_endo_pre,3.0.6,59.65581577090723,
52,1,74,,,,180,0,-4.6,left,1,0.537381492999998,left,,,,,,,002,73,2019_Mar_29_1311,Flow_endo_pre,3.0.6,59.65581577090723,
53,1,73,,,,0,0,-4.6,left,1,0.5354235719999849,left,,,,,,,002,73,2019_Mar_29_1311,Flow_endo_pre,3.0.6,59.65581577090723,
54,1,73,,,,0,0,-4.6,left,1,0.5352408429999969,left,,,,,,,002,73,2019_Mar_29_1311,Flow_endo_pre,3.0.6,59.65581577090723,
55,1,73,,,,180,90,-4.6,left,1,0.4857130839999968,left,,,,,,,002,73,2019_Mar_29_1311,Flow_endo_pre,3.0.6,59.65581577090723,
56,1,72,,,,180,90,4.6,right,1,0.5191520760000117,right,,,,,,,002,73,2019_Mar_29_1311,Flow_endo_pre,3.0.6,59.65581577090723,
57,1,72,,,,180,0,4.6,right,1,0.5004163050000159,right,,,,,,,002,73,2019_Mar_29_1311,Flow_endo_pre,3.0.6,59.65581577090723,
58,1,72,,,,180,0,-4.6,left,1,0.5199469689999887,left,,,,,,,002,73,2019_Mar_29_1311,Flow_endo_pre,3.0.6,59.65581577090723,
59,1,71,,,,180,0,4.6,right,1,0.3877366650000056,right,,,,,,,002,73,2019_Mar_29_1311,Flow_endo_pre,3.0.6,59.65581577090723,
60,1,71,,,,0,90,4.6,right,1,1.204591991000001,right,,,,,,,002,73,2019_Mar_29_1311,Flow_endo_pre,3.0.6,59.65581577090723,
61,1,71,,,,180,90,4.6,right,0,1.6861491840000156,left,,,,,,,002,73,2019_Mar_29_1311,Flow_endo_pre,3.0.6,59.65581577090723,
62,1,72,,,,0,90,4.6,right,1,0.4852516640000033,right,,,,,,,002,73,2019_Mar_29_1311,Flow_endo_pre,3.0.6,59.65581577090723,
63,1,72,,,,0,0,-4.6,left,1,0.5509822159999942,left,,,,,,,002,73,2019_Mar_29_1311,Flow_endo_pre,3.0.6,59.65581577090723,
64,1,72,,,,0,0,4.6,right,1,0.7187335109999822,right,,,,,,,002,73,2019_Mar_29_1311,Flow_endo_pre,3.0.6,59.65581577090723,
65,1,71,,,,0,0,-4.6,left,1,0.4860660699999926,left,,,,,,,002,73,2019_Mar_29_1311,Flow_endo_pre,3.0.6,59.65581577090723,
66,1,71,,,,180,0,4.6,right,1,0.9682937320000065,right,,,,,,,002,73,2019_Mar_29_1311,Flow_endo_pre,3.0.6,59.65581577090723,
67,1,71,,,,180,0,-4.6,left,1,0.38526802900000234,left,,,,,,,002,73,2019_Mar_29_1311,Flow_endo_pre,3.0.6,59.65581577090723,
68,1,70,,,,0,0,4.6,right,1,0.5356349359999797,right,,,,,,,002,73,2019_Mar_29_1311,Flow_endo_pre,3.0.6,59.65581577090723,
69,1,70,,,,180,0,4.6,right,1,0.6521636340000043,right,,,,,,,002,73,2019_Mar_29_1311,Flow_endo_pre,3.0.6,59.65581577090723,
70,1,70,,,,0,90,-4.6,left,1,0.41815160699999865,left,,,,,,,002,73,2019_Mar_29_1311,Flow_endo_pre,3.0.6,59.65581577090723,
71,1,69,,,,180,90,-4.6,left,1,0.8359339890000115,left,,,,,,,002,73,2019_Mar_29_1311,Flow_endo_pre,3.0.6,59.65581577090723,
72,1,69,,,,180,90,-4.6,left,1,0.4518890969999916,left,,,,,,,002,73,2019_Mar_29_1311,Flow_endo_pre,3.0.6,59.65581577090723,
73,1,69,,,,180,90,-4.6,left,1,0.5846703019999779,left,,,,,,,002,73,2019_Mar_29_1311,Flow_endo_pre,3.0.6,59.65581577090723,
74,1,68,,,,0,90,-4.6,left,1,0.6187047230000076,left,,,,,,,002,73,2019_Mar_29_1311,Flow_endo_pre,3.0.6,59.65581577090723,
75,1,68,,,,180,90,4.6,right,0,0.7187982680000005,left,,,,,,,002,73,2019_Mar_29_1311,Flow_endo_pre,3.0.6,59.65581577090723,
76,1,69,,,,0,0,-4.6,left,1,0.6189441080000222,left,,,,,,,002,73,2019_Mar_29_1311,Flow_endo_pre,3.0.6,59.65581577090723,
77,1,69,,,,0,0,4.6,right,0,0.9507077290000154,left,,,,,,,002,73,2019_Mar_29_1311,Flow_endo_pre,3.0.6,59.65581577090723,
78,1,70,,,,180,0,-4.6,left,1,0.5186084689999859,left,,,,,,,002,73,2019_Mar_29_1311,Flow_endo_pre,3.0.6,59.65581577090723,
79,1,70,,,,180,90,4.6,right,0,0.7172852079999927,left,,,,,,,002,73,2019_Mar_29_1311,Flow_endo_pre,3.0.6,59.65581577090723,
80,1,71,,,,0,90,4.6,right,1,0.7878988269999923,right,,,,,,,002,73,2019_Mar_29_1311,Flow_endo_pre,3.0.6,59.65581577090723,
81,1,71,,,,180,90,-4.6,left,1,0.5182125039999903,left,,,,,,,002,73,2019_Mar_29_1311,Flow_endo_pre,3.0.6,59.65581577090723,
82,1,71,,,,180,90,4.6,right,0,0.9193607580000105,left,,,,,,,002,73,2019_Mar_29_1311,Flow_endo_pre,3.0.6,59.65581577090723,
83,1,72,,,,0,0,-4.6,left,1,0.6340828829999907,left,,,,,,,002,73,2019_Mar_29_1311,Flow_endo_pre,3.0.6,59.65581577090723,
84,1,72,,,,180,90,-4.6,left,1,0.5188244689999806,left,,,,,,,002,73,2019_Mar_29_1311,Flow_endo_pre,3.0.6,59.65581577090723,
85,1,72,,,,0,0,-4.6,left,1,0.5362393640000107,left,,,,,,,002,73,2019_Mar_29_1311,Flow_endo_pre,3.0.6,59.65581577090723,
,,,0,1,81,,90,-4.6,left,,,,-4.6,1,0.7025871170000073,left,,,002,73,2019_Mar_29_1311,Flow_endo_pre,3.0.6,59.65581577090723,
,,,1,1,80,,90,-4.6,left,,,,4.6,1,1.4694996970000034,left,,,002,73,2019_Mar_29_1311,Flow_endo_pre,3.0.6,59.65581577090723,
,,,2,1,79,,0,4.6,right,,,,4.6,1,0.6678588530000127,right,,,002,73,2019_Mar_29_1311,Flow_endo_pre,3.0.6,59.65581577090723,
,,,3,1,78,,0,-4.6,left,,,,-4.6,1,0.5534352889999923,left,,,002,73,2019_Mar_29_1311,Flow_endo_pre,3.0.6,59.65581577090723,
,,,4,1,77,,90,-4.6,left,,,,4.6,1,0.851792587999995,left,,,002,73,2019_Mar_29_1311,Flow_endo_pre,3.0.6,59.65581577090723,
,,,5,1,76,,0,-4.6,left,,,,4.6,1,0.6684204740000155,left,,,002,73,2019_Mar_29_1311,Flow_endo_pre,3.0.6,59.65581577090723,
,,,6,1,75,,90,4.6,right,,,,-4.6,0,0.5685418349999907,left,,,002,73,2019_Mar_29_1311,Flow_endo_pre,3.0.6,59.65581577090723,
,,,7,1,76,,0,-4.6,left,,,,-4.6,1,0.6521097789999999,left,,,002,73,2019_Mar_29_1311,Flow_endo_pre,3.0.6,59.65581577090723,
,,,8,1,76,,90,4.6,right,,,,4.6,1,0.6184393229999898,right,,,002,73,2019_Mar_29_1311,Flow_endo_pre,3.0.6,59.65581577090723,
,,,9,1,76,,90,4.6,right,,,,-4.6,1,0.6843704449999848,right,,,002,73,2019_Mar_29_1311,Flow_endo_pre,3.0.6,59.65581577090723,
,,,10,1,75,,90,-4.6,left,,,,4.6,1,0.6012598620000063,left,,,002,73,2019_Mar_29_1311,Flow_endo_pre,3.0.6,59.65581577090723,
,,,11,1,75,,0,-4.6,left,,,,4.6,1,0.6678399259999992,left,,,002,73,2019_Mar_29_1311,Flow_endo_pre,3.0.6,59.65581577090723,
,,,12,1,75,,90,4.6,right,,,,-4.6,1,0.6030930769999827,right,,,002,73,2019_Mar_29_1311,Flow_endo_pre,3.0.6,59.65581577090723,
,,,13,1,74,,90,4.6,right,,,,-4.6,1,0.6188895160000243,right,,,002,73,2019_Mar_29_1311,Flow_endo_pre,3.0.6,59.65581577090723,
,,,14,1,74,,90,-4.6,left,,,,-4.6,1,0.6021214090000058,left,,,002,73,2019_Mar_29_1311,Flow_endo_pre,3.0.6,59.65581577090723,
,,,15,1,74,,90,4.6,right,,,,4.6,1,1.1531817339999861,right,,,002,73,2019_Mar_29_1311,Flow_endo_pre,3.0.6,59.65581577090723,
,,,16,1,73,,0,4.6,right,,,,4.6,1,0.5016543750000437,right,,,002,73,2019_Mar_29_1311,Flow_endo_pre,3.0.6,59.65581577090723,
,,,17,1,73,,90,4.6,right,,,,-4.6,1,0.5511707609999803,right,,,002,73,2019_Mar_29_1311,Flow_endo_pre,3.0.6,59.65581577090723,
,,,18,1,73,,0,4.6,right,,,,4.6,1,0.5009975259999919,right,,,002,73,2019_Mar_29_1311,Flow_endo_pre,3.0.6,59.65581577090723,
,,,19,1,72,,90,-4.6,left,,,,4.6,0,0.5195195129999775,right,,,002,73,2019_Mar_29_1311,Flow_endo_pre,3.0.6,59.65581577090723,
,,,20,1,73,,0,4.6,right,,,,-4.6,1,0.5524270469999806,right,,,002,73,2019_Mar_29_1311,Flow_endo_pre,3.0.6,59.65581577090723,
,,,21,1,73,,90,4.6,right,,,,4.6,1,0.5021664530000294,right,,,002,73,2019_Mar_29_1311,Flow_endo_pre,3.0.6,59.65581577090723,
,,,22,1,73,,90,4.6,right,,,,4.6,1,0.5187578160000044,right,,,002,73,2019_Mar_29_1311,Flow_endo_pre,3.0.6,59.65581577090723,
,,,23,1,72,,0,-4.6,left,,,,-4.6,1,0.48622234699996625,left,,,002,73,2019_Mar_29_1311,Flow_endo_pre,3.0.6,59.65581577090723,
,,,24,1,72,,0,-4.6,left,,,,4.6,1,0.8212707860000137,left,,,002,73,2019_Mar_29_1311,Flow_endo_pre,3.0.6,59.65581577090723,
,,,25,1,72,,90,4.6,right,,,,4.6,1,0.43572954500001515,right,,,002,73,2019_Mar_29_1311,Flow_endo_pre,3.0.6,59.65581577090723,
,,,26,1,71,,0,4.6,right,,,,4.6,1,0.48600647799997887,right,,,002,73,2019_Mar_29_1311,Flow_endo_pre,3.0.6,59.65581577090723,
,,,27,1,71,,0,4.6,right,,,,-4.6,0,0.5186013040000148,left,,,002,73,2019_Mar_29_1311,Flow_endo_pre,3.0.6,59.65581577090723,
,,,28,1,72,,90,4.6,right,,,,-4.6,1,0.8687680680000085,right,,,002,73,2019_Mar_29_1311,Flow_endo_pre,3.0.6,59.65581577090723,
,,,29,1,72,,0,4.6,right,,,,-4.6,1,0.5862404829999832,right,,,002,73,2019_Mar_29_1311,Flow_endo_pre,3.0.6,59.65581577090723,
,,,30,1,72,,90,-4.6,left,,,,-4.6,1,0.4027800930000467,left,,,002,73,2019_Mar_29_1311,Flow_endo_pre,3.0.6,59.65581577090723,
,,,31,1,71,,90,-4.6,left,,,,-4.6,1,0.5528341080000132,left,,,002,73,2019_Mar_29_1311,Flow_endo_pre,3.0.6,59.65581577090723,
,,,32,1,71,,90,4.6,right,,,,4.6,1,0.4186465079999948,right,,,002,73,2019_Mar_29_1311,Flow_endo_pre,3.0.6,59.65581577090723,
,,,33,1,71,,90,-4.6,left,,,,4.6,0,0.4502926899999693,right,,,002,73,2019_Mar_29_1311,Flow_endo_pre,3.0.6,59.65581577090723,
,,,34,1,72,,0,-4.6,left,,,,4.6,0,0.968722860000014,right,,,002,73,2019_Mar_29_1311,Flow_endo_pre,3.0.6,59.65581577090723,
,,,35,1,73,,0,4.6,right,,,,4.6,1,0.41864889599997923,right,,,002,73,2019_Mar_29_1311,Flow_endo_pre,3.0.6,59.65581577090723,
,,,36,1,73,,0,4.6,right,,,,-4.6,1,0.46857162600002766,right,,,002,73,2019_Mar_29_1311,Flow_endo_pre,3.0.6,59.65581577090723,
,,,37,1,73,,90,-4.6,left,,,,4.6,0,0.46957309300000816,right,,,002,73,2019_Mar_29_1311,Flow_endo_pre,3.0.6,59.65581577090723,
,,,38,1,74,,90,-4.6,left,,,,-4.6,1,0.518880949999982,left,,,002,73,2019_Mar_29_1311,Flow_endo_pre,3.0.6,59.65581577090723,
,,,39,1,74,,0,-4.6,left,,,,4.6,1,0.6034122449999586,left,,,002,73,2019_Mar_29_1311,Flow_endo_pre,3.0.6,59.65581577090723,
,,,40,1,74,,0,4.6,right,,,,-4.6,1,0.5703045199999792,right,,,002,73,2019_Mar_29_1311,Flow_endo_pre,3.0.6,59.65581577090723,
,,,41,1,73,,90,-4.6,left,,,,4.6,1,1.602515464000021,left,,,002,73,2019_Mar_29_1311,Flow_endo_pre,3.0.6,59.65581577090723,
,,,42,1,73,,0,-4.6,left,,,,4.6,1,0.585500412999977,left,,,002,73,2019_Mar_29_1311,Flow_endo_pre,3.0.6,59.65581577090723,
,,,43,1,73,,90,-4.6,left,,,,4.6,1,0.5871789820000117,left,,,002,73,2019_Mar_29_1311,Flow_endo_pre,3.0.6,59.65581577090723,
,,,44,1,72,,0,4.6,right,,,,-4.6,1,0.5846846779999737,right,,,002,73,2019_Mar_29_1311,Flow_endo_pre,3.0.6,59.65581577090723,
,,,45,1,72,,0,-4.6,left,,,,4.6,1,1.333211834999986,left,,,002,73,2019_Mar_29_1311,Flow_endo_pre,3.0.6,59.65581577090723,
,,,46,1,72,,90,-4.6,left,,,,4.6,0,1.6026123949999942,right,,,002,73,2019_Mar_29_1311,Flow_endo_pre,3.0.6,59.65581577090723,
,,,47,1,73,,0,-4.6,left,,,,4.6,1,0.868499704000044,left,,,002,73,2019_Mar_29_1311,Flow_endo_pre,3.0.6,59.65581577090723,
,,,48,1,73,,90,4.6,right,,,,4.6,1,0.4681877200000031,right,,,002,73,2019_Mar_29_1311,Flow_endo_pre,3.0.6,59.65581577090723,
,,,49,1,73,,90,4.6,right,,,,-4.6,1,0.6859535019999612,right,,,002,73,2019_Mar_29_1311,Flow_endo_pre,3.0.6,59.65581577090723,
,,,50,1,72,,90,4.6,right,,,,-4.6,1,0.7200436850000074,right,,,002,73,2019_Mar_29_1311,Flow_endo_pre,3.0.6,59.65581577090723,
,,,51,1,72,,90,-4.6,left,,,,4.6,1,0.9681611230000158,left,,,002,73,2019_Mar_29_1311,Flow_endo_pre,3.0.6,59.65581577090723,
,,,52,1,72,,0,4.6,right,,,,-4.6,1,1.101039739999976,right,,,002,73,2019_Mar_29_1311,Flow_endo_pre,3.0.6,59.65581577090723,
,,,53,1,71,,0,4.6,right,,,,4.6,0,1.2033953029999793,left,,,002,73,2019_Mar_29_1311,Flow_endo_pre,3.0.6,59.65581577090723,
,,,54,1,72,,90,4.6,right,,,,-4.6,1,0.9850391009999839,right,,,002,73,2019_Mar_29_1311,Flow_endo_pre,3.0.6,59.65581577090723,
,,,55,1,72,,90,-4.6,left,,,,-4.6,1,0.5854917799999839,left,,,002,73,2019_Mar_29_1311,Flow_endo_pre,3.0.6,59.65581577090723,
,,,56,1,72,,90,-4.6,left,,,,-4.6,1,0.7178726039999788,left,,,002,73,2019_Mar_29_1311,Flow_endo_pre,3.0.6,59.65581577090723,
,,,57,1,71,,0,-4.6,left,,,,-4.6,1,0.5525310169999784,left,,,002,73,2019_Mar_29_1311,Flow_endo_pre,3.0.6,59.65581577090723,
,,,58,1,71,,90,-4.6,left,,,,4.6,1,0.9183487239999977,left,,,002,73,2019_Mar_29_1311,Flow_endo_pre,3.0.6,59.65581577090723,
,,,59,1,71,,0,4.6,right,,,,-4.6,1,1.0382388159999891,right,,,002,73,2019_Mar_29_1311,Flow_endo_pre,3.0.6,59.65581577090723,
,,,60,1,70,,90,-4.6,left,,,,-4.6,0,1.5871042719999764,right,,,002,73,2019_Mar_29_1311,Flow_endo_pre,3.0.6,59.65581577090723,
,,,61,1,71,,0,-4.6,left,,,,-4.6,1,0.48349099800003614,left,,,002,73,2019_Mar_29_1311,Flow_endo_pre,3.0.6,59.65581577090723,
,,,62,1,71,,90,-4.6,left,,,,-4.6,1,0.6020969279999804,left,,,002,73,2019_Mar_29_1311,Flow_endo_pre,3.0.6,59.65581577090723,
,,,63,1,71,,0,-4.6,left,,,,-4.6,1,0.46697132799999963,left,,,002,73,2019_Mar_29_1311,Flow_endo_pre,3.0.6,59.65581577090723,
,,,,,,,,,,,,,,,,,Monday,37.453,002,73,2019_Mar_29_1311,Flow_endo_pre,3.0.6,59.65581577090723,
