Questions,Stair.thisTrialN,Stair.stepSize,Stair.intensity,Stair3.thisTrialN,Stair3.stepSize,Stair3.intensity,controlQ.thisRepN,controlQ.thisTrialN,controlQ.thisN,controlQ.thisIndex,Qs.thisRepN,Qs.thisTrialN,Qs.thisN,Qs.thisIndex,cueExoPos,targetXOri,targetXPos,CorrectAns,Stair.response,keyPress_2.rt,keyPress_2.rl,cueOri,Stair3.response,keyPress.rt,keyPress.rl,key_start.keys,key_start.rt,Quest_Ans.response,Quest_Ans.rt,Session,Participant,date,expName,psychopyVersion,frameRate,
,0,1,81,,,,,,,,,,,,-4.6,0,4.6,right,1,0.934334124,right,,,,,,,,,3,235,2019_Apr_10_1727,Flow_exo_post,3.0.5,60.00564416,
,1,1,80,,,,,,,,,,,,-4.6,90,4.6,right,1,0.467740152,right,,,,,,,,,3,235,2019_Apr_10_1727,Flow_exo_post,3.0.5,60.00564416,
,2,1,79,,,,,,,,,,,,-4.6,0,4.6,right,1,0.533650392,right,,,,,,,,,3,235,2019_Apr_10_1727,Flow_exo_post,3.0.5,60.00564416,
,3,1,78,,,,,,,,,,,,4.6,90,-4.6,left,1,0.617718189,left,,,,,,,,,3,235,2019_Apr_10_1727,Flow_exo_post,3.0.5,60.00564416,
,4,1,77,,,,,,,,,,,,-4.6,0,4.6,right,1,0.60101566,right,,,,,,,,,3,235,2019_Apr_10_1727,Flow_exo_post,3.0.5,60.00564416,
,5,1,76,,,,,,,,,,,,-4.6,0,4.6,right,1,0.517716831,right,,,,,,,,,3,235,2019_Apr_10_1727,Flow_exo_post,3.0.5,60.00564416,
,6,1,75,,,,,,,,,,,,4.6,0,-4.6,left,1,0.55131195,left,,,,,,,,,3,235,2019_Apr_10_1727,Flow_exo_post,3.0.5,60.00564416,
,7,1,74,,,,,,,,,,,,4.6,90,4.6,right,1,0.450998351,right,,,,,,,,,3,235,2019_Apr_10_1727,Flow_exo_post,3.0.5,60.00564416,
,8,1,73,,,,,,,,,,,,4.6,0,-4.6,left,1,0.484297227,left,,,,,,,,,3,235,2019_Apr_10_1727,Flow_exo_post,3.0.5,60.00564416,
,9,1,72,,,,,,,,,,,,-4.6,90,4.6,right,1,0.63441587,right,,,,,,,,,3,235,2019_Apr_10_1727,Flow_exo_post,3.0.5,60.00564416,
,10,1,71,,,,,,,,,,,,4.6,90,4.6,right,1,0.467721728,right,,,,,,,,,3,235,2019_Apr_10_1727,Flow_exo_post,3.0.5,60.00564416,
,11,1,70,,,,,,,,,,,,-4.6,90,4.6,right,1,0.584910948,right,,,,,,,,,3,235,2019_Apr_10_1727,Flow_exo_post,3.0.5,60.00564416,
,12,1,69,,,,,,,,,,,,4.6,90,4.6,right,1,0.784254755,right,,,,,,,,,3,235,2019_Apr_10_1727,Flow_exo_post,3.0.5,60.00564416,
,13,1,68,,,,,,,,,,,,4.6,0,-4.6,left,1,0.651688095,left,,,,,,,,,3,235,2019_Apr_10_1727,Flow_exo_post,3.0.5,60.00564416,
,14,1,67,,,,,,,,,,,,-4.6,90,4.6,right,1,0.717876637,right,,,,,,,,,3,235,2019_Apr_10_1727,Flow_exo_post,3.0.5,60.00564416,
,15,1,66,,,,,,,,,,,,-4.6,0,-4.6,left,1,0.517903983,left,,,,,,,,,3,235,2019_Apr_10_1727,Flow_exo_post,3.0.5,60.00564416,
,16,1,65,,,,,,,,,,,,-4.6,90,-4.6,left,0,0.768243619,right,,,,,,,,,3,235,2019_Apr_10_1727,Flow_exo_post,3.0.5,60.00564416,
,17,1,66,,,,,,,,,,,,4.6,0,4.6,right,1,0.335050827,right,,,,,,,,,3,235,2019_Apr_10_1727,Flow_exo_post,3.0.5,60.00564416,
,18,1,66,,,,,,,,,,,,-4.6,0,-4.6,left,1,1.000954181,left,,,,,,,,,3,235,2019_Apr_10_1727,Flow_exo_post,3.0.5,60.00564416,
,19,1,66,,,,,,,,,,,,4.6,90,-4.6,left,0,0.483024986,right,,,,,,,,,3,235,2019_Apr_10_1727,Flow_exo_post,3.0.5,60.00564416,
,20,1,67,,,,,,,,,,,,4.6,90,-4.6,left,1,0.567718237,left,,,,,,,,,3,235,2019_Apr_10_1727,Flow_exo_post,3.0.5,60.00564416,
,21,1,67,,,,,,,,,,,,4.6,0,-4.6,left,0,0.400299733,right,,,,,,,,,3,235,2019_Apr_10_1727,Flow_exo_post,3.0.5,60.00564416,
,22,1,68,,,,,,,,,,,,-4.6,0,4.6,right,0,0.584558463,left,,,,,,,,,3,235,2019_Apr_10_1727,Flow_exo_post,3.0.5,60.00564416,
,23,1,69,,,,,,,,,,,,4.6,0,4.6,right,1,0.834455918,right,,,,,,,,,3,235,2019_Apr_10_1727,Flow_exo_post,3.0.5,60.00564416,
,24,1,69,,,,,,,,,,,,4.6,0,-4.6,left,1,0.599653722,left,,,,,,,,,3,235,2019_Apr_10_1727,Flow_exo_post,3.0.5,60.00564416,
,25,1,69,,,,,,,,,,,,4.6,0,4.6,right,1,0.385104111,right,,,,,,,,,3,235,2019_Apr_10_1727,Flow_exo_post,3.0.5,60.00564416,
,26,1,68,,,,,,,,,,,,4.6,0,4.6,right,1,0.501074423,right,,,,,,,,,3,235,2019_Apr_10_1727,Flow_exo_post,3.0.5,60.00564416,
,27,1,68,,,,,,,,,,,,-4.6,0,-4.6,left,1,0.400700702,left,,,,,,,,,3,235,2019_Apr_10_1727,Flow_exo_post,3.0.5,60.00564416,
,28,1,68,,,,,,,,,,,,4.6,0,4.6,right,1,0.384370536,right,,,,,,,,,3,235,2019_Apr_10_1727,Flow_exo_post,3.0.5,60.00564416,
,29,1,67,,,,,,,,,,,,4.6,0,4.6,right,1,0.417703353,right,,,,,,,,,3,235,2019_Apr_10_1727,Flow_exo_post,3.0.5,60.00564416,
,30,1,67,,,,,,,,,,,,4.6,90,4.6,right,1,0.634386294,right,,,,,,,,,3,235,2019_Apr_10_1727,Flow_exo_post,3.0.5,60.00564416,
,31,1,67,,,,,,,,,,,,-4.6,0,4.6,right,0,0.50145115,left,,,,,,,,,3,235,2019_Apr_10_1727,Flow_exo_post,3.0.5,60.00564416,
,32,1,68,,,,,,,,,,,,4.6,90,-4.6,left,1,0.667618262,left,,,,,,,,,3,235,2019_Apr_10_1727,Flow_exo_post,3.0.5,60.00564416,
,33,1,68,,,,,,,,,,,,4.6,0,-4.6,left,0,0.584791675,right,,,,,,,,,3,235,2019_Apr_10_1727,Flow_exo_post,3.0.5,60.00564416,
,34,1,69,,,,,,,,,,,,-4.6,0,-4.6,left,1,0.4844485,left,,,,,,,,,3,235,2019_Apr_10_1727,Flow_exo_post,3.0.5,60.00564416,
,35,1,69,,,,,,,,,,,,4.6,90,4.6,right,1,0.433706246,right,,,,,,,,,3,235,2019_Apr_10_1727,Flow_exo_post,3.0.5,60.00564416,
,36,1,69,,,,,,,,,,,,-4.6,0,4.6,right,1,0.551513162,right,,,,,,,,,3,235,2019_Apr_10_1727,Flow_exo_post,3.0.5,60.00564416,
,37,1,68,,,,,,,,,,,,4.6,0,4.6,right,1,0.483853107,right,,,,,,,,,3,235,2019_Apr_10_1727,Flow_exo_post,3.0.5,60.00564416,
,38,1,68,,,,,,,,,,,,-4.6,0,-4.6,left,1,0.401728095,left,,,,,,,,,3,235,2019_Apr_10_1727,Flow_exo_post,3.0.5,60.00564416,
,39,1,68,,,,,,,,,,,,4.6,90,4.6,right,1,0.400327369,right,,,,,,,,,3,235,2019_Apr_10_1727,Flow_exo_post,3.0.5,60.00564416,
,40,1,67,,,,,,,,,,,,4.6,90,-4.6,left,1,0.983689228,left,,,,,,,,,3,235,2019_Apr_10_1727,Flow_exo_post,3.0.5,60.00564416,
,41,1,67,,,,,,,,,,,,-4.6,90,4.6,right,0,0.60174778,left,,,,,,,,,3,235,2019_Apr_10_1727,Flow_exo_post,3.0.5,60.00564416,
,42,1,68,,,,,,,,,,,,4.6,90,4.6,right,1,0.417580201,right,,,,,,,,,3,235,2019_Apr_10_1727,Flow_exo_post,3.0.5,60.00564416,
,43,1,68,,,,,,,,,,,,4.6,90,-4.6,left,0,0.4843365,right,,,,,,,,,3,235,2019_Apr_10_1727,Flow_exo_post,3.0.5,60.00564416,
,44,1,69,,,,,,,,,,,,-4.6,90,4.6,right,0,0.434151821,left,,,,,,,,,3,235,2019_Apr_10_1727,Flow_exo_post,3.0.5,60.00564416,
,45,1,70,,,,,,,,,,,,-4.6,90,4.6,right,0,0.517708589,left,,,,,,,,,3,235,2019_Apr_10_1727,Flow_exo_post,3.0.5,60.00564416,
,46,1,71,,,,,,,,,,,,4.6,90,4.6,right,1,0.383711143,right,,,,,,,,,3,235,2019_Apr_10_1727,Flow_exo_post,3.0.5,60.00564416,
,47,1,71,,,,,,,,,,,,4.6,90,-4.6,left,0,0.784398755,right,,,,,,,,,3,235,2019_Apr_10_1727,Flow_exo_post,3.0.5,60.00564416,
,48,1,72,,,,,,,,,,,,4.6,0,-4.6,left,1,0.584425615,left,,,,,,,,,3,235,2019_Apr_10_1727,Flow_exo_post,3.0.5,60.00564416,
,49,1,72,,,,,,,,,,,,4.6,0,4.6,right,1,0.600374691,right,,,,,,,,,3,235,2019_Apr_10_1727,Flow_exo_post,3.0.5,60.00564416,
,50,1,72,,,,,,,,,,,,4.6,90,4.6,right,1,0.399971006,right,,,,,,,,,3,235,2019_Apr_10_1727,Flow_exo_post,3.0.5,60.00564416,
,51,1,71,,,,,,,,,,,,4.6,90,4.6,right,1,0.451019199,right,,,,,,,,,3,235,2019_Apr_10_1727,Flow_exo_post,3.0.5,60.00564416,
,52,1,71,,,,,,,,,,,,-4.6,0,-4.6,left,1,0.450033503,left,,,,,,,,,3,235,2019_Apr_10_1727,Flow_exo_post,3.0.5,60.00564416,
,53,1,71,,,,,,,,,,,,-4.6,0,4.6,right,1,0.71761288,right,,,,,,,,,3,235,2019_Apr_10_1727,Flow_exo_post,3.0.5,60.00564416,
,54,1,70,,,,,,,,,,,,4.6,0,4.6,right,1,0.450187685,right,,,,,,,,,3,235,2019_Apr_10_1727,Flow_exo_post,3.0.5,60.00564416,
,55,1,70,,,,,,,,,,,,-4.6,90,4.6,right,0,0.434441761,left,,,,,,,,,3,235,2019_Apr_10_1727,Flow_exo_post,3.0.5,60.00564416,
,56,1,71,,,,,,,,,,,,-4.6,90,4.6,right,1,0.517560225,right,,,,,,,,,3,235,2019_Apr_10_1727,Flow_exo_post,3.0.5,60.00564416,
,57,1,71,,,,,,,,,,,,-4.6,90,-4.6,left,1,0.434374852,left,,,,,,,,,3,235,2019_Apr_10_1727,Flow_exo_post,3.0.5,60.00564416,
,58,1,71,,,,,,,,,,,,-4.6,90,-4.6,left,1,0.451470593,left,,,,,,,,,3,235,2019_Apr_10_1727,Flow_exo_post,3.0.5,60.00564416,
,59,1,70,,,,,,,,,,,,4.6,90,4.6,right,1,0.403778518,right,,,,,,,,,3,235,2019_Apr_10_1727,Flow_exo_post,3.0.5,60.00564416,
,60,1,70,,,,,,,,,,,,-4.6,0,4.6,right,0,0.48440147,left,,,,,,,,,3,235,2019_Apr_10_1727,Flow_exo_post,3.0.5,60.00564416,
,61,1,71,,,,,,,,,,,,4.6,0,-4.6,left,0,0.417756686,right,,,,,,,,,3,235,2019_Apr_10_1727,Flow_exo_post,3.0.5,60.00564416,
,62,1,72,,,,,,,,,,,,-4.6,0,-4.6,left,1,0.417873049,left,,,,,,,,,3,235,2019_Apr_10_1727,Flow_exo_post,3.0.5,60.00564416,
,63,1,72,,,,,,,,,,,,-4.6,90,-4.6,left,1,0.700950108,left,,,,,,,,,3,235,2019_Apr_10_1727,Flow_exo_post,3.0.5,60.00564416,
,64,1,72,,,,,,,,,,,,-4.6,0,4.6,right,1,0.568160419,right,,,,,,,,,3,235,2019_Apr_10_1727,Flow_exo_post,3.0.5,60.00564416,
,65,1,71,,,,,,,,,,,,-4.6,0,-4.6,left,1,0.467065729,left,,,,,,,,,3,235,2019_Apr_10_1727,Flow_exo_post,3.0.5,60.00564416,
,66,1,71,,,,,,,,,,,,-4.6,90,-4.6,left,1,0.451219441,left,,,,,,,,,3,235,2019_Apr_10_1727,Flow_exo_post,3.0.5,60.00564416,
,67,1,71,,,,,,,,,,,,4.6,90,-4.6,left,1,0.78423924,left,,,,,,,,,3,235,2019_Apr_10_1727,Flow_exo_post,3.0.5,60.00564416,
,68,1,70,,,,,,,,,,,,4.6,90,-4.6,left,1,0.717699183,left,,,,,,,,,3,235,2019_Apr_10_1727,Flow_exo_post,3.0.5,60.00564416,
,69,1,70,,,,,,,,,,,,-4.6,90,-4.6,left,1,0.417554504,left,,,,,,,,,3,235,2019_Apr_10_1727,Flow_exo_post,3.0.5,60.00564416,
,70,1,70,,,,,,,,,,,,-4.6,90,-4.6,left,1,0.450987684,left,,,,,,,,,3,235,2019_Apr_10_1727,Flow_exo_post,3.0.5,60.00564416,
,71,1,69,,,,,,,,,,,,4.6,0,4.6,right,1,0.433223822,right,,,,,,,,,3,235,2019_Apr_10_1727,Flow_exo_post,3.0.5,60.00564416,
,72,1,69,,,,,,,,,,,,4.6,0,-4.6,left,1,0.583939313,left,,,,,,,,,3,235,2019_Apr_10_1727,Flow_exo_post,3.0.5,60.00564416,
,73,1,69,,,,,,,,,,,,-4.6,0,-4.6,left,1,0.417678625,left,,,,,,,,,3,235,2019_Apr_10_1727,Flow_exo_post,3.0.5,60.00564416,
,74,1,68,,,,,,,,,,,,4.6,0,-4.6,left,1,0.667711353,left,,,,,,,,,3,235,2019_Apr_10_1727,Flow_exo_post,3.0.5,60.00564416,
,75,1,68,,,,,,,,,,,,4.6,90,-4.6,left,0,0.517761437,right,,,,,,,,,3,235,2019_Apr_10_1727,Flow_exo_post,3.0.5,60.00564416,
,76,1,69,,,,,,,,,,,,4.6,90,4.6,right,1,1.001134544,right,,,,,,,,,3,235,2019_Apr_10_1727,Flow_exo_post,3.0.5,60.00564416,
,77,1,69,,,,,,,,,,,,4.6,0,4.6,right,1,0.417195232,right,,,,,,,,,3,235,2019_Apr_10_1727,Flow_exo_post,3.0.5,60.00564416,
,78,1,69,,,,,,,,,,,,-4.6,90,4.6,right,0,0.401032823,left,,,,,,,,,3,235,2019_Apr_10_1727,Flow_exo_post,3.0.5,60.00564416,
,79,1,70,,,,,,,,,,,,4.6,90,-4.6,left,1,0.584702463,left,,,,,,,,,3,235,2019_Apr_10_1727,Flow_exo_post,3.0.5,60.00564416,
,80,1,70,,,,,,,,,,,,-4.6,0,-4.6,left,1,0.46712488,left,,,,,,,,,3,235,2019_Apr_10_1727,Flow_exo_post,3.0.5,60.00564416,
,81,1,70,,,,,,,,,,,,-4.6,0,4.6,right,1,0.501059393,right,,,,,,,,,3,235,2019_Apr_10_1727,Flow_exo_post,3.0.5,60.00564416,
,82,1,69,,,,,,,,,,,,4.6,90,-4.6,left,0,0.667581898,right,,,,,,,,,3,235,2019_Apr_10_1727,Flow_exo_post,3.0.5,60.00564416,
,83,1,70,,,,,,,,,,,,4.6,0,-4.6,left,1,0.584440161,left,,,,,,,,,3,235,2019_Apr_10_1727,Flow_exo_post,3.0.5,60.00564416,
,84,1,70,,,,,,,,,,,,-4.6,0,-4.6,left,1,0.484312258,left,,,,,,,,,3,235,2019_Apr_10_1727,Flow_exo_post,3.0.5,60.00564416,
,85,1,70,,,,,,,,,,,,4.6,90,4.6,right,1,0.717577486,right,,,,,,,,,3,235,2019_Apr_10_1727,Flow_exo_post,3.0.5,60.00564416,
,,,,0,1,81,,,,,,,,,,0,-4.6,left,,,,180,1,0.534818875,left,,,,,3,235,2019_Apr_10_1727,Flow_exo_post,3.0.5,60.00564416,
,,,,1,1,80,,,,,,,,,,90,4.6,right,,,,0,1,0.517031741,right,,,,,3,235,2019_Apr_10_1727,Flow_exo_post,3.0.5,60.00564416,
,,,,2,1,79,,,,,,,,,,90,4.6,right,,,,0,1,0.584197737,right,,,,,3,235,2019_Apr_10_1727,Flow_exo_post,3.0.5,60.00564416,
,,,,3,1,78,,,,,,,,,,0,-4.6,left,,,,0,1,0.550999708,left,,,,,3,235,2019_Apr_10_1727,Flow_exo_post,3.0.5,60.00564416,
,,,,4,1,77,,,,,,,,,,0,-4.6,left,,,,180,1,0.467688759,left,,,,,3,235,2019_Apr_10_1727,Flow_exo_post,3.0.5,60.00564416,
,,,,5,1,76,,,,,,,,,,90,4.6,right,,,,0,1,0.534240452,right,,,,,3,235,2019_Apr_10_1727,Flow_exo_post,3.0.5,60.00564416,
,,,,6,1,75,,,,,,,,,,0,-4.6,left,,,,180,1,0.451030351,left,,,,,3,235,2019_Apr_10_1727,Flow_exo_post,3.0.5,60.00564416,
,,,,7,1,74,,,,,,,,,,0,-4.6,left,,,,180,1,0.467931667,left,,,,,3,235,2019_Apr_10_1727,Flow_exo_post,3.0.5,60.00564416,
,,,,8,1,73,,,,,,,,,,0,4.6,right,,,,0,1,0.600976387,right,,,,,3,235,2019_Apr_10_1727,Flow_exo_post,3.0.5,60.00564416,
,,,,9,1,72,,,,,,,,,,90,4.6,right,,,,0,1,0.484313712,right,,,,,3,235,2019_Apr_10_1727,Flow_exo_post,3.0.5,60.00564416,
,,,,10,1,71,,,,,,,,,,90,-4.6,left,,,,180,1,0.417698504,left,,,,,3,235,2019_Apr_10_1727,Flow_exo_post,3.0.5,60.00564416,
,,,,11,1,70,,,,,,,,,,0,-4.6,left,,,,180,1,0.501121453,left,,,,,3,235,2019_Apr_10_1727,Flow_exo_post,3.0.5,60.00564416,
,,,,12,1,69,,,,,,,,,,0,-4.6,left,,,,0,1,0.634557445,left,,,,,3,235,2019_Apr_10_1727,Flow_exo_post,3.0.5,60.00564416,
,,,,13,1,68,,,,,,,,,,0,4.6,right,,,,0,1,0.517759498,right,,,,,3,235,2019_Apr_10_1727,Flow_exo_post,3.0.5,60.00564416,
,,,,14,1,67,,,,,,,,,,90,4.6,right,,,,180,1,0.434184306,right,,,,,3,235,2019_Apr_10_1727,Flow_exo_post,3.0.5,60.00564416,
,,,,15,1,66,,,,,,,,,,0,-4.6,left,,,,0,1,0.501108363,left,,,,,3,235,2019_Apr_10_1727,Flow_exo_post,3.0.5,60.00564416,
,,,,16,1,65,,,,,,,,,,90,4.6,right,,,,0,0,0.534355361,left,,,,,3,235,2019_Apr_10_1727,Flow_exo_post,3.0.5,60.00564416,
,,,,17,1,66,,,,,,,,,,0,-4.6,left,,,,0,1,0.634373688,left,,,,,3,235,2019_Apr_10_1727,Flow_exo_post,3.0.5,60.00564416,
,,,,18,1,66,,,,,,,,,,90,4.6,right,,,,180,1,0.50097212,right,,,,,3,235,2019_Apr_10_1727,Flow_exo_post,3.0.5,60.00564416,
,,,,19,1,66,,,,,,,,,,90,4.6,right,,,,0,0,0.501540362,left,,,,,3,235,2019_Apr_10_1727,Flow_exo_post,3.0.5,60.00564416,
,,,,20,1,67,,,,,,,,,,0,-4.6,left,,,,0,1,0.434233761,left,,,,,3,235,2019_Apr_10_1727,Flow_exo_post,3.0.5,60.00564416,
,,,,21,1,67,,,,,,,,,,0,4.6,right,,,,180,1,0.36776934,right,,,,,3,235,2019_Apr_10_1727,Flow_exo_post,3.0.5,60.00564416,
,,,,22,1,67,,,,,,,,,,90,4.6,right,,,,0,0,0.401118641,left,,,,,3,235,2019_Apr_10_1727,Flow_exo_post,3.0.5,60.00564416,
,,,,23,1,68,,,,,,,,,,90,-4.6,left,,,,0,1,0.601103417,left,,,,,3,235,2019_Apr_10_1727,Flow_exo_post,3.0.5,60.00564416,
,,,,24,1,68,,,,,,,,,,90,-4.6,left,,,,180,0,0.534569179,right,,,,,3,235,2019_Apr_10_1727,Flow_exo_post,3.0.5,60.00564416,
,,,,25,1,69,,,,,,,,,,0,-4.6,left,,,,0,1,0.584353858,left,,,,,3,235,2019_Apr_10_1727,Flow_exo_post,3.0.5,60.00564416,
,,,,26,1,69,,,,,,,,,,0,4.6,right,,,,180,1,0.467580637,right,,,,,3,235,2019_Apr_10_1727,Flow_exo_post,3.0.5,60.00564416,
,,,,27,1,69,,,,,,,,,,0,-4.6,left,,,,0,1,0.417746019,left,,,,,3,235,2019_Apr_10_1727,Flow_exo_post,3.0.5,60.00564416,
,,,,28,1,68,,,,,,,,,,90,-4.6,left,,,,0,1,0.501763877,left,,,,,3,235,2019_Apr_10_1727,Flow_exo_post,3.0.5,60.00564416,
,,,,29,1,68,,,,,,,,,,0,4.6,right,,,,0,1,1.096699543,right,,,,,3,235,2019_Apr_10_1727,Flow_exo_post,3.0.5,60.00564416,
,,,,30,1,68,,,,,,,,,,0,-4.6,left,,,,180,1,0.801053284,left,,,,,3,235,2019_Apr_10_1727,Flow_exo_post,3.0.5,60.00564416,
,,,,31,1,67,,,,,,,,,,90,-4.6,left,,,,180,0,0.600303903,right,,,,,3,235,2019_Apr_10_1727,Flow_exo_post,3.0.5,60.00564416,
,,,,32,1,68,,,,,,,,,,0,-4.6,left,,,,180,1,0.584353373,left,,,,,3,235,2019_Apr_10_1727,Flow_exo_post,3.0.5,60.00564416,
,,,,33,1,68,,,,,,,,,,0,-4.6,left,,,,0,1,0.450338472,left,,,,,3,235,2019_Apr_10_1727,Flow_exo_post,3.0.5,60.00564416,
,,,,34,1,68,,,,,,,,,,0,4.6,right,,,,0,1,0.533503968,right,,,,,3,235,2019_Apr_10_1727,Flow_exo_post,3.0.5,60.00564416,
,,,,35,1,67,,,,,,,,,,90,4.6,right,,,,180,1,0.517107377,right,,,,,3,235,2019_Apr_10_1727,Flow_exo_post,3.0.5,60.00564416,
,,,,36,1,67,,,,,,,,,,0,-4.6,left,,,,180,1,0.75098206,left,,,,,3,235,2019_Apr_10_1727,Flow_exo_post,3.0.5,60.00564416,
,,,,37,1,67,,,,,,,,,,90,4.6,right,,,,0,0,0.567780783,left,,,,,3,235,2019_Apr_10_1727,Flow_exo_post,3.0.5,60.00564416,
,,,,38,1,68,,,,,,,,,,0,4.6,right,,,,180,1,0.484323894,right,,,,,3,235,2019_Apr_10_1727,Flow_exo_post,3.0.5,60.00564416,
,,,,39,1,68,,,,,,,,,,90,4.6,right,,,,0,0,0.517008468,left,,,,,3,235,2019_Apr_10_1727,Flow_exo_post,3.0.5,60.00564416,
,,,,40,1,69,,,,,,,,,,90,-4.6,left,,,,180,1,0.73319735,left,,,,,3,235,2019_Apr_10_1727,Flow_exo_post,3.0.5,60.00564416,
,,,,41,1,69,,,,,,,,,,90,-4.6,left,,,,0,1,0.800392436,left,,,,,3,235,2019_Apr_10_1727,Flow_exo_post,3.0.5,60.00564416,
,,,,42,1,69,,,,,,,,,,90,4.6,right,,,,180,1,0.417290262,right,,,,,3,235,2019_Apr_10_1727,Flow_exo_post,3.0.5,60.00564416,
,,,,43,1,68,,,,,,,,,,90,4.6,right,,,,0,1,0.517605801,right,,,,,3,235,2019_Apr_10_1727,Flow_exo_post,3.0.5,60.00564416,
,,,,44,1,68,,,,,,,,,,0,4.6,right,,,,0,0,0.46824197,left,,,,,3,235,2019_Apr_10_1727,Flow_exo_post,3.0.5,60.00564416,
,,,,45,1,69,,,,,,,,,,90,4.6,right,,,,180,1,0.584291797,right,,,,,3,235,2019_Apr_10_1727,Flow_exo_post,3.0.5,60.00564416,
,,,,46,1,69,,,,,,,,,,0,4.6,right,,,,0,0,0.50097212,left,,,,,3,235,2019_Apr_10_1727,Flow_exo_post,3.0.5,60.00564416,
,,,,47,1,70,,,,,,,,,,90,-4.6,left,,,,180,0,0.733509107,right,,,,,3,235,2019_Apr_10_1727,Flow_exo_post,3.0.5,60.00564416,
,,,,48,1,71,,,,,,,,,,0,4.6,right,,,,180,1,0.484320015,right,,,,,3,235,2019_Apr_10_1727,Flow_exo_post,3.0.5,60.00564416,
,,,,49,1,71,,,,,,,,,,0,-4.6,left,,,,180,1,0.552918737,left,,,,,3,235,2019_Apr_10_1727,Flow_exo_post,3.0.5,60.00564416,
,,,,50,1,71,,,,,,,,,,90,4.6,right,,,,180,1,0.51773574,right,,,,,3,235,2019_Apr_10_1727,Flow_exo_post,3.0.5,60.00564416,
,,,,51,1,70,,,,,,,,,,90,-4.6,left,,,,180,0,0.617629462,right,,,,,3,235,2019_Apr_10_1727,Flow_exo_post,3.0.5,60.00564416,
,,,,52,1,71,,,,,,,,,,90,-4.6,left,,,,180,1,0.601101963,left,,,,,3,235,2019_Apr_10_1727,Flow_exo_post,3.0.5,60.00564416,
,,,,53,1,71,,,,,,,,,,0,4.6,right,,,,0,1,1.05093086,right,,,,,3,235,2019_Apr_10_1727,Flow_exo_post,3.0.5,60.00564416,
,,,,54,1,71,,,,,,,,,,0,-4.6,left,,,,0,1,0.433879337,left,,,,,3,235,2019_Apr_10_1727,Flow_exo_post,3.0.5,60.00564416,
,,,,55,1,70,,,,,,,,,,0,4.6,right,,,,180,1,0.633701204,right,,,,,3,235,2019_Apr_10_1727,Flow_exo_post,3.0.5,60.00564416,
,,,,56,1,70,,,,,,,,,,90,-4.6,left,,,,0,1,0.501072484,left,,,,,3,235,2019_Apr_10_1727,Flow_exo_post,3.0.5,60.00564416,
,,,,57,1,70,,,,,,,,,,0,4.6,right,,,,0,1,0.451003684,right,,,,,3,235,2019_Apr_10_1727,Flow_exo_post,3.0.5,60.00564416,
,,,,58,1,69,,,,,,,,,,90,4.6,right,,,,0,0,0.766446772,left,,,,,3,235,2019_Apr_10_1727,Flow_exo_post,3.0.5,60.00564416,
,,,,59,1,70,,,,,,,,,,0,4.6,right,,,,180,1,0.451007563,right,,,,,3,235,2019_Apr_10_1727,Flow_exo_post,3.0.5,60.00564416,
,,,,60,1,70,,,,,,,,,,0,-4.6,left,,,,0,1,0.417788201,left,,,,,3,235,2019_Apr_10_1727,Flow_exo_post,3.0.5,60.00564416,
,,,,61,1,70,,,,,,,,,,0,-4.6,left,,,,180,0,0.717870334,right,,,,,3,235,2019_Apr_10_1727,Flow_exo_post,3.0.5,60.00564416,
,,,,62,1,71,,,,,,,,,,0,-4.6,left,,,,180,1,0.650999126,left,,,,,3,235,2019_Apr_10_1727,Flow_exo_post,3.0.5,60.00564416,
,,,,63,1,71,,,,,,,,,,90,4.6,right,,,,180,1,0.434016549,right,,,,,3,235,2019_Apr_10_1727,Flow_exo_post,3.0.5,60.00564416,
,,,,64,1,71,,,,,,,,,,0,-4.6,left,,,,0,1,0.484631772,left,,,,,3,235,2019_Apr_10_1727,Flow_exo_post,3.0.5,60.00564416,
,,,,65,1,70,,,,,,,,,,90,4.6,right,,,,180,1,0.717667668,right,,,,,3,235,2019_Apr_10_1727,Flow_exo_post,3.0.5,60.00564416,
,,,,66,1,70,,,,,,,,,,90,-4.6,left,,,,0,1,0.417842504,left,,,,,3,235,2019_Apr_10_1727,Flow_exo_post,3.0.5,60.00564416,
,,,,67,1,70,,,,,,,,,,0,-4.6,left,,,,0,1,0.500355878,left,,,,,3,235,2019_Apr_10_1727,Flow_exo_post,3.0.5,60.00564416,
,,,,68,1,69,,,,,,,,,,0,-4.6,left,,,,0,1,0.599656631,left,,,,,3,235,2019_Apr_10_1727,Flow_exo_post,3.0.5,60.00564416,
,,,,69,1,69,,,,,,,,,,90,4.6,right,,,,180,1,0.450987684,right,,,,,3,235,2019_Apr_10_1727,Flow_exo_post,3.0.5,60.00564416,
,,,,70,1,69,,,,,,,,,,90,4.6,right,,,,180,1,0.650327127,right,,,,,3,235,2019_Apr_10_1727,Flow_exo_post,3.0.5,60.00564416,
,,,,71,1,68,,,,,,,,,,90,4.6,right,,,,0,0,0.567767692,left,,,,,3,235,2019_Apr_10_1727,Flow_exo_post,3.0.5,60.00564416,
,,,,72,1,69,,,,,,,,,,90,-4.6,left,,,,180,0,0.484664257,right,,,,,3,235,2019_Apr_10_1727,Flow_exo_post,3.0.5,60.00564416,
,,,,73,1,70,,,,,,,,,,0,-4.6,left,,,,0,1,0.500882423,left,,,,,3,235,2019_Apr_10_1727,Flow_exo_post,3.0.5,60.00564416,
,,,,74,1,70,,,,,,,,,,0,4.6,right,,,,180,1,0.550204557,right,,,,,3,235,2019_Apr_10_1727,Flow_exo_post,3.0.5,60.00564416,
,,,,75,1,70,,,,,,,,,,90,4.6,right,,,,0,1,0.584685978,right,,,,,3,235,2019_Apr_10_1727,Flow_exo_post,3.0.5,60.00564416,
,,,,,,,,,,,,,,,,,,,,,,,,,,space,2.982753956,,,3,235,2019_Apr_10_1727,Flow_exo_post,3.0.5,60.00564416,
My state (body feelings, emotions and thoughts) during the task on the computer was similar to the state I had during my music performance.,,,,,,,0,0,0,0,,,,,,,,,,,,,,,,,,4,5.884,3,235,2019_Apr_10_1727,Flow_exo_post,3.0.5,60.00564416
Things just seemed to happen automatically.,,,,,,,,,,,0,0,0,21,,,,,,,,,,,,,,4,3.553,3,235,2019_Apr_10_1727,Flow_exo_post,3.0.5,60.00564416,
My attention was focused entirely on what I was doing.,,,,,,,,,,,0,1,1,3,,,,,,,,,,,,,,5,2.352,3,235,2019_Apr_10_1727,Flow_exo_post,3.0.5,60.00564416,
Time seemed to alter (either slows down or speeds up).,,,,,,,,,,,0,2,2,23,,,,,,,,,,,,,,4,1.791,3,235,2019_Apr_10_1727,Flow_exo_post,3.0.5,60.00564416,
The experience left me feeling great.,,,,,,,,,,,0,3,3,18,,,,,,,,,,,,,,3,2.394,3,235,2019_Apr_10_1727,Flow_exo_post,3.0.5,60.00564416,
I felt just the right amount of challenge. ,,,,,,,,,,,0,4,4,11,,,,,,,,,,,,,,4,2.055,3,235,2019_Apr_10_1727,Flow_exo_post,3.0.5,60.00564416,
I had total concentration.,,,,,,,,,,,0,5,5,5,,,,,,,,,,,,,,4,1.279,3,235,2019_Apr_10_1727,Flow_exo_post,3.0.5,60.00564416,
I was not worried about what others might be thinking of me.,,,,,,,,,,,0,6,6,16,,,,,,,,,,,,,,3,2.732,3,235,2019_Apr_10_1727,Flow_exo_post,3.0.5,60.00564416,
I was not concerned with how I was presenting myself.,,,,,,,,,,,0,7,7,15,,,,,,,,,,,,,,3,2.438,3,235,2019_Apr_10_1727,Flow_exo_post,3.0.5,60.00564416,
I had a strong sense of what I wanted to accomplish.,,,,,,,,,,,0,8,8,0,,,,,,,,,,,,,,4,2.794,3,235,2019_Apr_10_1727,Flow_exo_post,3.0.5,60.00564416,
I knew what I want to achieve.,,,,,,,,,,,0,9,9,1,,,,,,,,,,,,,,4,1.389,3,235,2019_Apr_10_1727,Flow_exo_post,3.0.5,60.00564416,
The challenge and my skills were at an equally high level.,,,,,,,,,,,0,10,10,10,,,,,,,,,,,,,,4,1.244,3,235,2019_Apr_10_1727,Flow_exo_post,3.0.5,60.00564416,
I had no difficulty concentrating.,,,,,,,,,,,0,11,11,6,,,,,,,,,,,,,,3,2.046,3,235,2019_Apr_10_1727,Flow_exo_post,3.0.5,60.00564416,
I had a good idea while I was performing about how well I was doing.,,,,,,,,,,,0,12,12,8,,,,,,,,,,,,,,2,3.324,3,235,2019_Apr_10_1727,Flow_exo_post,3.0.5,60.00564416,
My goals were clearly defined. ,,,,,,,,,,,0,13,13,2,,,,,,,,,,,,,,3,1.731,3,235,2019_Apr_10_1727,Flow_exo_post,3.0.5,60.00564416,
I lost my normal awareness of time.,,,,,,,,,,,0,14,14,20,,,,,,,,,,,,,,4,1.76,3,235,2019_Apr_10_1727,Flow_exo_post,3.0.5,60.00564416,
I felt that I had everything under control.,,,,,,,,,,,0,15,15,13,,,,,,,,,,,,,,4,1.698,3,235,2019_Apr_10_1727,Flow_exo_post,3.0.5,60.00564416,
I really enjoyed the experience.,,,,,,,,,,,0,16,16,17,,,,,,,,,,,,,,3,2.153,3,235,2019_Apr_10_1727,Flow_exo_post,3.0.5,60.00564416,
It was really clear to me how my performance was going.,,,,,,,,,,,0,17,17,7,,,,,,,,,,,,,,3,4.204,3,235,2019_Apr_10_1727,Flow_exo_post,3.0.5,60.00564416,
It was no effort to keep my mind on what was happening.,,,,,,,,,,,0,18,18,4,,,,,,,,,,,,,,4,4.444,3,235,2019_Apr_10_1727,Flow_exo_post,3.0.5,60.00564416,
I felt as though I had everything under control.,,,,,,,,,,,0,19,19,12,,,,,,,,,,,,,,4,1.691,3,235,2019_Apr_10_1727,Flow_exo_post,3.0.5,60.00564416,
The way time passed seemed to be different from normal.,,,,,,,,,,,0,20,20,24,,,,,,,,,,,,,,3,1.575,3,235,2019_Apr_10_1727,Flow_exo_post,3.0.5,60.00564416,
The experience was extremely rewarding.,,,,,,,,,,,0,21,21,19,,,,,,,,,,,,,,3,1.441,3,235,2019_Apr_10_1727,Flow_exo_post,3.0.5,60.00564416,
I was not concerned with how others might be evaluating me.,,,,,,,,,,,0,22,22,14,,,,,,,,,,,,,,3,4.552,3,235,2019_Apr_10_1727,Flow_exo_post,3.0.5,60.00564416,
I did things spontaneously without having to think.,,,,,,,,,,,0,23,23,22,,,,,,,,,,,,,,4,3.458,3,235,2019_Apr_10_1727,Flow_exo_post,3.0.5,60.00564416,
I was challenged, but I believe my skills will allow me to meet that challenge.,,,,,,,,,,,0,24,24,9,,,,,,,,,,,,,,4,3.085,3,235,2019_Apr_10_1727,Flow_exo_post,3.0.5,60.00564416
I performed automatically without having to think about it.,,,,,,,,,,,0,25,25,25,,,,,,,,,,,,,,4,1.172,3,235,2019_Apr_10_1727,Flow_exo_post,3.0.5,60.00564416,
