Questions,Stair.thisTrialN,Stair.stepSize,Stair.intensity,Stair3.thisTrialN,Stair3.stepSize,Stair3.intensity,controlQ.thisRepN,controlQ.thisTrialN,controlQ.thisN,controlQ.thisIndex,Qs.thisRepN,Qs.thisTrialN,Qs.thisN,Qs.thisIndex,cueExoPos,targetXOri,targetXPos,CorrectAns,Stair.response,keyPress_2.rt,keyPress_2.rl,cueOri,Stair3.response,keyPress.rt,keyPress.rl,key_start.keys,key_start.rt,Quest_Ans.response,Quest_Ans.rt,Session,Participant,date,expName,psychopyVersion,frameRate,
,0,1,81,,,,,,,,,,,,-4.6,90,4.6,right,1,1.2689765,right,,,,,,,,,2,171,2019_Apr_05_1602,Flow_exo_post,3.0.5,59.59113331,
,1,1,80,,,,,,,,,,,,4.6,0,-4.6,left,1,0.6018349,left,,,,,,,,,2,171,2019_Apr_05_1602,Flow_exo_post,3.0.5,59.59113331,
,2,1,79,,,,,,,,,,,,4.6,90,4.6,right,1,0.5515845,right,,,,,,,,,2,171,2019_Apr_05_1602,Flow_exo_post,3.0.5,59.59113331,
,3,1,78,,,,,,,,,,,,4.6,0,4.6,right,1,0.5183686,right,,,,,,,,,2,171,2019_Apr_05_1602,Flow_exo_post,3.0.5,59.59113331,
,4,1,77,,,,,,,,,,,,-4.6,90,-4.6,left,1,0.4676847,left,,,,,,,,,2,171,2019_Apr_05_1602,Flow_exo_post,3.0.5,59.59113331,
,5,1,76,,,,,,,,,,,,4.6,90,-4.6,left,1,0.6173049,left,,,,,,,,,2,171,2019_Apr_05_1602,Flow_exo_post,3.0.5,59.59113331,
,6,1,75,,,,,,,,,,,,-4.6,90,4.6,right,1,0.5856072,right,,,,,,,,,2,171,2019_Apr_05_1602,Flow_exo_post,3.0.5,59.59113331,
,7,1,74,,,,,,,,,,,,-4.6,0,-4.6,left,1,0.5343243,left,,,,,,,,,2,171,2019_Apr_05_1602,Flow_exo_post,3.0.5,59.59113331,
,8,1,73,,,,,,,,,,,,-4.6,90,-4.6,left,1,0.4850049,left,,,,,,,,,2,171,2019_Apr_05_1602,Flow_exo_post,3.0.5,59.59113331,
,9,1,72,,,,,,,,,,,,4.6,90,-4.6,left,1,0.5848704,left,,,,,,,,,2,171,2019_Apr_05_1602,Flow_exo_post,3.0.5,59.59113331,
,10,1,71,,,,,,,,,,,,4.6,0,-4.6,left,1,0.652084,left,,,,,,,,,2,171,2019_Apr_05_1602,Flow_exo_post,3.0.5,59.59113331,
,11,1,70,,,,,,,,,,,,4.6,90,-4.6,left,1,0.968431,left,,,,,,,,,2,171,2019_Apr_05_1602,Flow_exo_post,3.0.5,59.59113331,
,12,1,69,,,,,,,,,,,,4.6,0,-4.6,left,1,0.8862089,left,,,,,,,,,2,171,2019_Apr_05_1602,Flow_exo_post,3.0.5,59.59113331,
,13,1,68,,,,,,,,,,,,4.6,0,-4.6,left,0,0.6180578,right,,,,,,,,,2,171,2019_Apr_05_1602,Flow_exo_post,3.0.5,59.59113331,
,14,1,69,,,,,,,,,,,,-4.6,90,-4.6,left,1,0.7021683,left,,,,,,,,,2,171,2019_Apr_05_1602,Flow_exo_post,3.0.5,59.59113331,
,15,1,69,,,,,,,,,,,,-4.6,0,-4.6,left,1,0.4519662,left,,,,,,,,,2,171,2019_Apr_05_1602,Flow_exo_post,3.0.5,59.59113331,
,16,1,69,,,,,,,,,,,,-4.6,0,4.6,right,1,0.4351146,right,,,,,,,,,2,171,2019_Apr_05_1602,Flow_exo_post,3.0.5,59.59113331,
,17,1,68,,,,,,,,,,,,4.6,0,4.6,right,1,0.6184839,right,,,,,,,,,2,171,2019_Apr_05_1602,Flow_exo_post,3.0.5,59.59113331,
,18,1,68,,,,,,,,,,,,-4.6,0,4.6,right,1,0.5346317,right,,,,,,,,,2,171,2019_Apr_05_1602,Flow_exo_post,3.0.5,59.59113331,
,19,1,68,,,,,,,,,,,,-4.6,0,-4.6,left,1,0.4351373,left,,,,,,,,,2,171,2019_Apr_05_1602,Flow_exo_post,3.0.5,59.59113331,
,20,1,67,,,,,,,,,,,,-4.6,90,-4.6,left,0,0.9021681,right,,,,,,,,,2,171,2019_Apr_05_1602,Flow_exo_post,3.0.5,59.59113331,
,21,1,68,,,,,,,,,,,,4.6,0,4.6,right,1,0.485587,right,,,,,,,,,2,171,2019_Apr_05_1602,Flow_exo_post,3.0.5,59.59113331,
,22,1,68,,,,,,,,,,,,4.6,90,-4.6,left,0,0.5015916,right,,,,,,,,,2,171,2019_Apr_05_1602,Flow_exo_post,3.0.5,59.59113331,
,23,1,69,,,,,,,,,,,,-4.6,0,-4.6,left,1,0.5517273,left,,,,,,,,,2,171,2019_Apr_05_1602,Flow_exo_post,3.0.5,59.59113331,
,24,1,69,,,,,,,,,,,,-4.6,0,4.6,right,1,0.4849512,right,,,,,,,,,2,171,2019_Apr_05_1602,Flow_exo_post,3.0.5,59.59113331,
,25,1,69,,,,,,,,,,,,-4.6,0,-4.6,left,1,0.4689559,left,,,,,,,,,2,171,2019_Apr_05_1602,Flow_exo_post,3.0.5,59.59113331,
,26,1,68,,,,,,,,,,,,-4.6,0,4.6,right,1,0.5016445,right,,,,,,,,,2,171,2019_Apr_05_1602,Flow_exo_post,3.0.5,59.59113331,
,27,1,68,,,,,,,,,,,,-4.6,0,4.6,right,1,0.4683279,right,,,,,,,,,2,171,2019_Apr_05_1602,Flow_exo_post,3.0.5,59.59113331,
,28,1,68,,,,,,,,,,,,-4.6,90,-4.6,left,1,0.4176165,left,,,,,,,,,2,171,2019_Apr_05_1602,Flow_exo_post,3.0.5,59.59113331,
,29,1,67,,,,,,,,,,,,-4.6,90,4.6,right,1,0.4349539,right,,,,,,,,,2,171,2019_Apr_05_1602,Flow_exo_post,3.0.5,59.59113331,
,30,1,67,,,,,,,,,,,,4.6,0,4.6,right,1,0.4178308,right,,,,,,,,,2,171,2019_Apr_05_1602,Flow_exo_post,3.0.5,59.59113331,
,31,1,67,,,,,,,,,,,,-4.6,90,-4.6,left,0,0.6014875,right,,,,,,,,,2,171,2019_Apr_05_1602,Flow_exo_post,3.0.5,59.59113331,
,32,1,68,,,,,,,,,,,,-4.6,90,-4.6,left,1,1.0334629,left,,,,,,,,,2,171,2019_Apr_05_1602,Flow_exo_post,3.0.5,59.59113331,
,33,1,68,,,,,,,,,,,,4.6,0,4.6,right,1,0.5012665,right,,,,,,,,,2,171,2019_Apr_05_1602,Flow_exo_post,3.0.5,59.59113331,
,34,1,68,,,,,,,,,,,,-4.6,90,-4.6,left,1,0.6515044,left,,,,,,,,,2,171,2019_Apr_05_1602,Flow_exo_post,3.0.5,59.59113331,
,35,1,67,,,,,,,,,,,,-4.6,0,-4.6,left,1,0.6183749,left,,,,,,,,,2,171,2019_Apr_05_1602,Flow_exo_post,3.0.5,59.59113331,
,36,1,67,,,,,,,,,,,,4.6,90,4.6,right,1,0.5181225,right,,,,,,,,,2,171,2019_Apr_05_1602,Flow_exo_post,3.0.5,59.59113331,
,37,1,67,,,,,,,,,,,,-4.6,90,-4.6,left,1,0.4513456,left,,,,,,,,,2,171,2019_Apr_05_1602,Flow_exo_post,3.0.5,59.59113331,
,38,1,66,,,,,,,,,,,,4.6,0,4.6,right,1,0.4852655,right,,,,,,,,,2,171,2019_Apr_05_1602,Flow_exo_post,3.0.5,59.59113331,
,39,1,66,,,,,,,,,,,,4.6,90,-4.6,left,0,0.5017596,right,,,,,,,,,2,171,2019_Apr_05_1602,Flow_exo_post,3.0.5,59.59113331,
,40,1,67,,,,,,,,,,,,4.6,90,4.6,right,1,0.4684841,right,,,,,,,,,2,171,2019_Apr_05_1602,Flow_exo_post,3.0.5,59.59113331,
,41,1,67,,,,,,,,,,,,-4.6,0,-4.6,left,1,0.4674813,left,,,,,,,,,2,171,2019_Apr_05_1602,Flow_exo_post,3.0.5,59.59113331,
,42,1,67,,,,,,,,,,,,4.6,0,-4.6,left,0,0.4684344,right,,,,,,,,,2,171,2019_Apr_05_1602,Flow_exo_post,3.0.5,59.59113331,
,43,1,68,,,,,,,,,,,,4.6,0,4.6,right,1,0.435196,right,,,,,,,,,2,171,2019_Apr_05_1602,Flow_exo_post,3.0.5,59.59113331,
,44,1,68,,,,,,,,,,,,4.6,0,4.6,right,1,0.5187813,right,,,,,,,,,2,171,2019_Apr_05_1602,Flow_exo_post,3.0.5,59.59113331,
,45,1,68,,,,,,,,,,,,-4.6,90,-4.6,left,0,0.6519386,right,,,,,,,,,2,171,2019_Apr_05_1602,Flow_exo_post,3.0.5,59.59113331,
,46,1,69,,,,,,,,,,,,4.6,90,-4.6,left,0,0.5180002,right,,,,,,,,,2,171,2019_Apr_05_1602,Flow_exo_post,3.0.5,59.59113331,
,47,1,70,,,,,,,,,,,,4.6,90,4.6,right,1,0.6179377,right,,,,,,,,,2,171,2019_Apr_05_1602,Flow_exo_post,3.0.5,59.59113331,
,48,1,70,,,,,,,,,,,,-4.6,0,4.6,right,1,0.5347888,right,,,,,,,,,2,171,2019_Apr_05_1602,Flow_exo_post,3.0.5,59.59113331,
,49,1,70,,,,,,,,,,,,-4.6,90,4.6,right,0,0.5017995,left,,,,,,,,,2,171,2019_Apr_05_1602,Flow_exo_post,3.0.5,59.59113331,
,50,1,71,,,,,,,,,,,,4.6,0,-4.6,left,1,0.602275,left,,,,,,,,,2,171,2019_Apr_05_1602,Flow_exo_post,3.0.5,59.59113331,
,51,1,71,,,,,,,,,,,,-4.6,90,-4.6,left,1,0.4521972,left,,,,,,,,,2,171,2019_Apr_05_1602,Flow_exo_post,3.0.5,59.59113331,
,52,1,71,,,,,,,,,,,,-4.6,90,-4.6,left,1,0.4181128,left,,,,,,,,,2,171,2019_Apr_05_1602,Flow_exo_post,3.0.5,59.59113331,
,53,1,70,,,,,,,,,,,,-4.6,0,-4.6,left,1,0.4347889,left,,,,,,,,,2,171,2019_Apr_05_1602,Flow_exo_post,3.0.5,59.59113331,
,54,1,70,,,,,,,,,,,,-4.6,90,-4.6,left,1,0.5177354,left,,,,,,,,,2,171,2019_Apr_05_1602,Flow_exo_post,3.0.5,59.59113331,
,55,1,70,,,,,,,,,,,,-4.6,90,-4.6,left,1,0.5015793,left,,,,,,,,,2,171,2019_Apr_05_1602,Flow_exo_post,3.0.5,59.59113331,
,56,1,69,,,,,,,,,,,,4.6,0,-4.6,left,0,0.5353899,right,,,,,,,,,2,171,2019_Apr_05_1602,Flow_exo_post,3.0.5,59.59113331,
,57,1,70,,,,,,,,,,,,-4.6,90,4.6,right,0,1.4025093,left,,,,,,,,,2,171,2019_Apr_05_1602,Flow_exo_post,3.0.5,59.59113331,
,58,1,71,,,,,,,,,,,,-4.6,0,-4.6,left,1,0.3686933,left,,,,,,,,,2,171,2019_Apr_05_1602,Flow_exo_post,3.0.5,59.59113331,
,59,1,71,,,,,,,,,,,,4.6,0,4.6,right,1,0.3510048,right,,,,,,,,,2,171,2019_Apr_05_1602,Flow_exo_post,3.0.5,59.59113331,
,60,1,71,,,,,,,,,,,,4.6,0,4.6,right,1,0.3843768,right,,,,,,,,,2,171,2019_Apr_05_1602,Flow_exo_post,3.0.5,59.59113331,
,61,1,70,,,,,,,,,,,,-4.6,0,4.6,right,1,0.4007963,right,,,,,,,,,2,171,2019_Apr_05_1602,Flow_exo_post,3.0.5,59.59113331,
,62,1,70,,,,,,,,,,,,4.6,90,4.6,right,1,0.3512457,right,,,,,,,,,2,171,2019_Apr_05_1602,Flow_exo_post,3.0.5,59.59113331,
,63,1,70,,,,,,,,,,,,-4.6,0,4.6,right,1,0.6518594,right,,,,,,,,,2,171,2019_Apr_05_1602,Flow_exo_post,3.0.5,59.59113331,
,64,1,69,,,,,,,,,,,,4.6,90,4.6,right,1,0.351757,right,,,,,,,,,2,171,2019_Apr_05_1602,Flow_exo_post,3.0.5,59.59113331,
,65,1,69,,,,,,,,,,,,4.6,0,-4.6,left,0,0.550864,right,,,,,,,,,2,171,2019_Apr_05_1602,Flow_exo_post,3.0.5,59.59113331,
,66,1,70,,,,,,,,,,,,-4.6,90,4.6,right,1,0.5344595,right,,,,,,,,,2,171,2019_Apr_05_1602,Flow_exo_post,3.0.5,59.59113331,
,67,1,70,,,,,,,,,,,,-4.6,0,-4.6,left,1,0.4853714,left,,,,,,,,,2,171,2019_Apr_05_1602,Flow_exo_post,3.0.5,59.59113331,
,68,1,70,,,,,,,,,,,,-4.6,90,4.6,right,0,0.6185717,left,,,,,,,,,2,171,2019_Apr_05_1602,Flow_exo_post,3.0.5,59.59113331,
,69,1,71,,,,,,,,,,,,-4.6,90,4.6,right,1,0.4347229,right,,,,,,,,,2,171,2019_Apr_05_1602,Flow_exo_post,3.0.5,59.59113331,
,70,1,71,,,,,,,,,,,,4.6,0,4.6,right,1,0.4186314,right,,,,,,,,,2,171,2019_Apr_05_1602,Flow_exo_post,3.0.5,59.59113331,
,71,1,71,,,,,,,,,,,,4.6,0,-4.6,left,0,0.4176225,right,,,,,,,,,2,171,2019_Apr_05_1602,Flow_exo_post,3.0.5,59.59113331,
,72,1,72,,,,,,,,,,,,4.6,0,-4.6,left,0,0.4016527,right,,,,,,,,,2,171,2019_Apr_05_1602,Flow_exo_post,3.0.5,59.59113331,
,73,1,73,,,,,,,,,,,,4.6,0,-4.6,left,1,0.8360589,left,,,,,,,,,2,171,2019_Apr_05_1602,Flow_exo_post,3.0.5,59.59113331,
,74,1,73,,,,,,,,,,,,4.6,90,-4.6,left,0,0.4508719,right,,,,,,,,,2,171,2019_Apr_05_1602,Flow_exo_post,3.0.5,59.59113331,
,75,1,74,,,,,,,,,,,,4.6,0,-4.6,left,0,0.4518558,right,,,,,,,,,2,171,2019_Apr_05_1602,Flow_exo_post,3.0.5,59.59113331,
,76,1,75,,,,,,,,,,,,4.6,90,-4.6,left,0,0.4850602,right,,,,,,,,,2,171,2019_Apr_05_1602,Flow_exo_post,3.0.5,59.59113331,
,77,1,76,,,,,,,,,,,,-4.6,0,-4.6,left,1,0.5182926,left,,,,,,,,,2,171,2019_Apr_05_1602,Flow_exo_post,3.0.5,59.59113331,
,78,1,76,,,,,,,,,,,,4.6,0,4.6,right,1,0.4353856,right,,,,,,,,,2,171,2019_Apr_05_1602,Flow_exo_post,3.0.5,59.59113331,
,79,1,76,,,,,,,,,,,,4.6,0,-4.6,left,1,0.5695205,left,,,,,,,,,2,171,2019_Apr_05_1602,Flow_exo_post,3.0.5,59.59113331,
,80,1,75,,,,,,,,,,,,-4.6,0,-4.6,left,1,0.5016251,left,,,,,,,,,2,171,2019_Apr_05_1602,Flow_exo_post,3.0.5,59.59113331,
,81,1,75,,,,,,,,,,,,4.6,0,-4.6,left,1,0.534903,left,,,,,,,,,2,171,2019_Apr_05_1602,Flow_exo_post,3.0.5,59.59113331,
,82,1,75,,,,,,,,,,,,-4.6,90,-4.6,left,1,0.4685586,left,,,,,,,,,2,171,2019_Apr_05_1602,Flow_exo_post,3.0.5,59.59113331,
,83,1,74,,,,,,,,,,,,4.6,90,-4.6,left,1,0.5348585,left,,,,,,,,,2,171,2019_Apr_05_1602,Flow_exo_post,3.0.5,59.59113331,
,84,1,74,,,,,,,,,,,,4.6,0,-4.6,left,1,0.6013961,left,,,,,,,,,2,171,2019_Apr_05_1602,Flow_exo_post,3.0.5,59.59113331,
,85,1,74,,,,,,,,,,,,4.6,0,-4.6,left,1,0.5016437,left,,,,,,,,,2,171,2019_Apr_05_1602,Flow_exo_post,3.0.5,59.59113331,
,86,1,73,,,,,,,,,,,,4.6,90,4.6,right,1,0.4515008,right,,,,,,,,,2,171,2019_Apr_05_1602,Flow_exo_post,3.0.5,59.59113331,
,87,1,73,,,,,,,,,,,,-4.6,0,-4.6,left,1,0.5016805,left,,,,,,,,,2,171,2019_Apr_05_1602,Flow_exo_post,3.0.5,59.59113331,
,88,1,73,,,,,,,,,,,,-4.6,0,-4.6,left,1,0.4680053,left,,,,,,,,,2,171,2019_Apr_05_1602,Flow_exo_post,3.0.5,59.59113331,
,89,1,72,,,,,,,,,,,,4.6,90,4.6,right,1,0.3845842,right,,,,,,,,,2,171,2019_Apr_05_1602,Flow_exo_post,3.0.5,59.59113331,
,90,1,72,,,,,,,,,,,,-4.6,90,-4.6,left,1,0.4192104,left,,,,,,,,,2,171,2019_Apr_05_1602,Flow_exo_post,3.0.5,59.59113331,
,91,1,72,,,,,,,,,,,,4.6,90,-4.6,left,1,0.7354192,left,,,,,,,,,2,171,2019_Apr_05_1602,Flow_exo_post,3.0.5,59.59113331,
,92,1,71,,,,,,,,,,,,4.6,0,-4.6,left,1,0.9019718,left,,,,,,,,,2,171,2019_Apr_05_1602,Flow_exo_post,3.0.5,59.59113331,
,93,1,71,,,,,,,,,,,,4.6,90,-4.6,left,0,0.6855933,right,,,,,,,,,2,171,2019_Apr_05_1602,Flow_exo_post,3.0.5,59.59113331,
,94,1,72,,,,,,,,,,,,4.6,0,-4.6,left,1,0.5515139,left,,,,,,,,,2,171,2019_Apr_05_1602,Flow_exo_post,3.0.5,59.59113331,
,95,1,72,,,,,,,,,,,,4.6,90,4.6,right,1,0.4174897,right,,,,,,,,,2,171,2019_Apr_05_1602,Flow_exo_post,3.0.5,59.59113331,
,96,1,72,,,,,,,,,,,,-4.6,90,-4.6,left,1,0.5181314,left,,,,,,,,,2,171,2019_Apr_05_1602,Flow_exo_post,3.0.5,59.59113331,
,,,,0,1,81,,,,,,,,,,90,4.6,right,,,,180,1,0.5857772,right,,,,,2,171,2019_Apr_05_1602,Flow_exo_post,3.0.5,59.59113331,
,,,,1,1,80,,,,,,,,,,90,4.6,right,,,,180,1,1.0182574,right,,,,,2,171,2019_Apr_05_1602,Flow_exo_post,3.0.5,59.59113331,
,,,,2,1,79,,,,,,,,,,90,-4.6,left,,,,0,1,0.5517209,left,,,,,2,171,2019_Apr_05_1602,Flow_exo_post,3.0.5,59.59113331,
,,,,3,1,78,,,,,,,,,,90,4.6,right,,,,0,1,0.5846869,right,,,,,2,171,2019_Apr_05_1602,Flow_exo_post,3.0.5,59.59113331,
,,,,4,1,77,,,,,,,,,,90,-4.6,left,,,,0,1,0.5013337,left,,,,,2,171,2019_Apr_05_1602,Flow_exo_post,3.0.5,59.59113331,
,,,,5,1,76,,,,,,,,,,0,-4.6,left,,,,180,1,0.5516677,left,,,,,2,171,2019_Apr_05_1602,Flow_exo_post,3.0.5,59.59113331,
,,,,6,1,75,,,,,,,,,,90,4.6,right,,,,0,1,0.5513924,right,,,,,2,171,2019_Apr_05_1602,Flow_exo_post,3.0.5,59.59113331,
,,,,7,1,74,,,,,,,,,,90,4.6,right,,,,180,1,0.6006391,right,,,,,2,171,2019_Apr_05_1602,Flow_exo_post,3.0.5,59.59113331,
,,,,8,1,73,,,,,,,,,,0,-4.6,left,,,,180,1,0.5007973,left,,,,,2,171,2019_Apr_05_1602,Flow_exo_post,3.0.5,59.59113331,
,,,,9,1,72,,,,,,,,,,0,-4.6,left,,,,180,1,0.5851749,left,,,,,2,171,2019_Apr_05_1602,Flow_exo_post,3.0.5,59.59113331,
,,,,10,1,71,,,,,,,,,,90,-4.6,left,,,,0,1,0.7184582,left,,,,,2,171,2019_Apr_05_1602,Flow_exo_post,3.0.5,59.59113331,
,,,,11,1,70,,,,,,,,,,0,4.6,right,,,,0,1,0.5016523,right,,,,,2,171,2019_Apr_05_1602,Flow_exo_post,3.0.5,59.59113331,
,,,,12,1,69,,,,,,,,,,0,4.6,right,,,,0,1,0.6015552,right,,,,,2,171,2019_Apr_05_1602,Flow_exo_post,3.0.5,59.59113331,
,,,,13,1,68,,,,,,,,,,90,4.6,right,,,,180,1,0.5842648,right,,,,,2,171,2019_Apr_05_1602,Flow_exo_post,3.0.5,59.59113331,
,,,,14,1,67,,,,,,,,,,0,4.6,right,,,,180,1,0.4521826,right,,,,,2,171,2019_Apr_05_1602,Flow_exo_post,3.0.5,59.59113331,
,,,,15,1,66,,,,,,,,,,90,4.6,right,,,,180,1,0.6681936,right,,,,,2,171,2019_Apr_05_1602,Flow_exo_post,3.0.5,59.59113331,
,,,,16,1,65,,,,,,,,,,0,4.6,right,,,,0,0,0.5354652,left,,,,,2,171,2019_Apr_05_1602,Flow_exo_post,3.0.5,59.59113331,
,,,,17,1,66,,,,,,,,,,0,-4.6,left,,,,0,1,0.4677805,left,,,,,2,171,2019_Apr_05_1602,Flow_exo_post,3.0.5,59.59113331,
,,,,18,1,66,,,,,,,,,,0,-4.6,left,,,,0,1,0.4846077,left,,,,,2,171,2019_Apr_05_1602,Flow_exo_post,3.0.5,59.59113331,
,,,,19,1,66,,,,,,,,,,90,-4.6,left,,,,0,1,0.4182704,left,,,,,2,171,2019_Apr_05_1602,Flow_exo_post,3.0.5,59.59113331,
,,,,20,1,65,,,,,,,,,,90,-4.6,left,,,,180,1,0.5017155,left,,,,,2,171,2019_Apr_05_1602,Flow_exo_post,3.0.5,59.59113331,
,,,,21,1,65,,,,,,,,,,90,-4.6,left,,,,180,0,0.4845557,right,,,,,2,171,2019_Apr_05_1602,Flow_exo_post,3.0.5,59.59113331,
,,,,22,1,66,,,,,,,,,,0,4.6,right,,,,180,1,0.4348612,right,,,,,2,171,2019_Apr_05_1602,Flow_exo_post,3.0.5,59.59113331,
,,,,23,1,66,,,,,,,,,,0,4.6,right,,,,180,1,0.434894,right,,,,,2,171,2019_Apr_05_1602,Flow_exo_post,3.0.5,59.59113331,
,,,,24,1,66,,,,,,,,,,90,4.6,right,,,,180,1,0.5181519,right,,,,,2,171,2019_Apr_05_1602,Flow_exo_post,3.0.5,59.59113331,
,,,,25,1,65,,,,,,,,,,90,-4.6,left,,,,180,0,0.4514542,right,,,,,2,171,2019_Apr_05_1602,Flow_exo_post,3.0.5,59.59113331,
,,,,26,1,66,,,,,,,,,,0,4.6,right,,,,180,1,0.4683046,right,,,,,2,171,2019_Apr_05_1602,Flow_exo_post,3.0.5,59.59113331,
,,,,27,1,66,,,,,,,,,,0,-4.6,left,,,,180,0,0.417434,right,,,,,2,171,2019_Apr_05_1602,Flow_exo_post,3.0.5,59.59113331,
,,,,28,1,67,,,,,,,,,,0,4.6,right,,,,180,1,0.4187458,right,,,,,2,171,2019_Apr_05_1602,Flow_exo_post,3.0.5,59.59113331,
,,,,29,1,67,,,,,,,,,,90,-4.6,left,,,,0,1,0.5670124,left,,,,,2,171,2019_Apr_05_1602,Flow_exo_post,3.0.5,59.59113331,
,,,,30,1,67,,,,,,,,,,90,4.6,right,,,,0,0,0.4020123,left,,,,,2,171,2019_Apr_05_1602,Flow_exo_post,3.0.5,59.59113331,
,,,,31,1,68,,,,,,,,,,0,4.6,right,,,,0,0,0.4505887,left,,,,,2,171,2019_Apr_05_1602,Flow_exo_post,3.0.5,59.59113331,
,,,,32,1,69,,,,,,,,,,0,4.6,right,,,,0,1,0.4685244,right,,,,,2,171,2019_Apr_05_1602,Flow_exo_post,3.0.5,59.59113331,
,,,,33,1,69,,,,,,,,,,0,-4.6,left,,,,0,1,0.5031316,left,,,,,2,171,2019_Apr_05_1602,Flow_exo_post,3.0.5,59.59113331,
,,,,34,1,69,,,,,,,,,,0,-4.6,left,,,,0,1,0.4844085,left,,,,,2,171,2019_Apr_05_1602,Flow_exo_post,3.0.5,59.59113331,
,,,,35,1,68,,,,,,,,,,90,-4.6,left,,,,0,0,0.501938,right,,,,,2,171,2019_Apr_05_1602,Flow_exo_post,3.0.5,59.59113331,
,,,,36,1,69,,,,,,,,,,0,4.6,right,,,,0,1,0.4348552,right,,,,,2,171,2019_Apr_05_1602,Flow_exo_post,3.0.5,59.59113331,
,,,,37,1,69,,,,,,,,,,0,-4.6,left,,,,0,0,0.5676265,right,,,,,2,171,2019_Apr_05_1602,Flow_exo_post,3.0.5,59.59113331,
,,,,38,1,70,,,,,,,,,,90,4.6,right,,,,180,1,0.4021327,right,,,,,2,171,2019_Apr_05_1602,Flow_exo_post,3.0.5,59.59113331,
,,,,39,1,70,,,,,,,,,,90,4.6,right,,,,0,1,0.4339594,right,,,,,2,171,2019_Apr_05_1602,Flow_exo_post,3.0.5,59.59113331,
,,,,40,1,70,,,,,,,,,,90,-4.6,left,,,,180,0,0.3677208,right,,,,,2,171,2019_Apr_05_1602,Flow_exo_post,3.0.5,59.59113331,
,,,,41,1,71,,,,,,,,,,90,-4.6,left,,,,0,0,0.5019282,right,,,,,2,171,2019_Apr_05_1602,Flow_exo_post,3.0.5,59.59113331,
,,,,42,1,72,,,,,,,,,,0,4.6,right,,,,0,0,0.4679226,left,,,,,2,171,2019_Apr_05_1602,Flow_exo_post,3.0.5,59.59113331,
,,,,43,1,73,,,,,,,,,,0,4.6,right,,,,0,1,0.5352415,right,,,,,2,171,2019_Apr_05_1602,Flow_exo_post,3.0.5,59.59113331,
,,,,44,1,73,,,,,,,,,,0,-4.6,left,,,,0,1,0.4845898,left,,,,,2,171,2019_Apr_05_1602,Flow_exo_post,3.0.5,59.59113331,
,,,,45,1,73,,,,,,,,,,90,4.6,right,,,,0,1,0.4513745,right,,,,,2,171,2019_Apr_05_1602,Flow_exo_post,3.0.5,59.59113331,
,,,,46,1,72,,,,,,,,,,0,4.6,right,,,,180,1,0.4348983,right,,,,,2,171,2019_Apr_05_1602,Flow_exo_post,3.0.5,59.59113331,
,,,,47,1,72,,,,,,,,,,90,-4.6,left,,,,180,0,0.8190405,right,,,,,2,171,2019_Apr_05_1602,Flow_exo_post,3.0.5,59.59113331,
,,,,48,1,73,,,,,,,,,,0,4.6,right,,,,180,1,0.4340885,right,,,,,2,171,2019_Apr_05_1602,Flow_exo_post,3.0.5,59.59113331,
,,,,49,1,73,,,,,,,,,,90,-4.6,left,,,,180,1,0.4863915,left,,,,,2,171,2019_Apr_05_1602,Flow_exo_post,3.0.5,59.59113331,
,,,,50,1,73,,,,,,,,,,0,-4.6,left,,,,180,1,0.6350511,left,,,,,2,171,2019_Apr_05_1602,Flow_exo_post,3.0.5,59.59113331,
,,,,51,1,72,,,,,,,,,,0,-4.6,left,,,,0,1,0.4181994,left,,,,,2,171,2019_Apr_05_1602,Flow_exo_post,3.0.5,59.59113331,
,,,,52,1,72,,,,,,,,,,90,4.6,right,,,,0,1,0.4346527,right,,,,,2,171,2019_Apr_05_1602,Flow_exo_post,3.0.5,59.59113331,
,,,,53,1,72,,,,,,,,,,90,-4.6,left,,,,0,1,0.4177682,left,,,,,2,171,2019_Apr_05_1602,Flow_exo_post,3.0.5,59.59113331,
,,,,54,1,71,,,,,,,,,,90,-4.6,left,,,,180,1,0.5855546,left,,,,,2,171,2019_Apr_05_1602,Flow_exo_post,3.0.5,59.59113331,
,,,,55,1,71,,,,,,,,,,0,-4.6,left,,,,0,1,0.4182073,left,,,,,2,171,2019_Apr_05_1602,Flow_exo_post,3.0.5,59.59113331,
,,,,56,1,71,,,,,,,,,,90,4.6,right,,,,180,1,0.4015563,right,,,,,2,171,2019_Apr_05_1602,Flow_exo_post,3.0.5,59.59113331,
,,,,57,1,70,,,,,,,,,,90,-4.6,left,,,,0,1,0.4514346,left,,,,,2,171,2019_Apr_05_1602,Flow_exo_post,3.0.5,59.59113331,
,,,,58,1,70,,,,,,,,,,0,-4.6,left,,,,0,1,0.3681727,left,,,,,2,171,2019_Apr_05_1602,Flow_exo_post,3.0.5,59.59113331,
,,,,59,1,70,,,,,,,,,,0,-4.6,left,,,,180,1,0.5678113,left,,,,,2,171,2019_Apr_05_1602,Flow_exo_post,3.0.5,59.59113331,
,,,,60,1,69,,,,,,,,,,90,4.6,right,,,,0,0,0.6018402,left,,,,,2,171,2019_Apr_05_1602,Flow_exo_post,3.0.5,59.59113331,
,,,,61,1,70,,,,,,,,,,90,4.6,right,,,,0,1,0.4348346,right,,,,,2,171,2019_Apr_05_1602,Flow_exo_post,3.0.5,59.59113331,
,,,,62,1,70,,,,,,,,,,90,-4.6,left,,,,180,1,0.5504328,left,,,,,2,171,2019_Apr_05_1602,Flow_exo_post,3.0.5,59.59113331,
,,,,63,1,70,,,,,,,,,,90,-4.6,left,,,,180,1,0.5188778,left,,,,,2,171,2019_Apr_05_1602,Flow_exo_post,3.0.5,59.59113331,
,,,,64,1,69,,,,,,,,,,0,-4.6,left,,,,0,1,0.4019598,left,,,,,2,171,2019_Apr_05_1602,Flow_exo_post,3.0.5,59.59113331,
,,,,65,1,69,,,,,,,,,,0,-4.6,left,,,,180,1,0.4179375,left,,,,,2,171,2019_Apr_05_1602,Flow_exo_post,3.0.5,59.59113331,
,,,,66,1,69,,,,,,,,,,0,4.6,right,,,,180,1,0.417918,right,,,,,2,171,2019_Apr_05_1602,Flow_exo_post,3.0.5,59.59113331,
,,,,67,1,68,,,,,,,,,,0,-4.6,left,,,,0,1,0.4847468,left,,,,,2,171,2019_Apr_05_1602,Flow_exo_post,3.0.5,59.59113331,
,,,,68,1,68,,,,,,,,,,90,-4.6,left,,,,0,1,0.417579,left,,,,,2,171,2019_Apr_05_1602,Flow_exo_post,3.0.5,59.59113331,
,,,,69,1,68,,,,,,,,,,90,4.6,right,,,,180,1,0.4012611,right,,,,,2,171,2019_Apr_05_1602,Flow_exo_post,3.0.5,59.59113331,
,,,,70,1,67,,,,,,,,,,90,-4.6,left,,,,0,1,0.4176004,left,,,,,2,171,2019_Apr_05_1602,Flow_exo_post,3.0.5,59.59113331,
,,,,71,1,67,,,,,,,,,,90,-4.6,left,,,,0,1,0.4181435,left,,,,,2,171,2019_Apr_05_1602,Flow_exo_post,3.0.5,59.59113331,
,,,,72,1,67,,,,,,,,,,0,-4.6,left,,,,180,0,0.4174936,right,,,,,2,171,2019_Apr_05_1602,Flow_exo_post,3.0.5,59.59113331,
,,,,73,1,68,,,,,,,,,,90,4.6,right,,,,0,0,0.4514782,left,,,,,2,171,2019_Apr_05_1602,Flow_exo_post,3.0.5,59.59113331,
,,,,74,1,69,,,,,,,,,,0,-4.6,left,,,,0,1,0.4509074,left,,,,,2,171,2019_Apr_05_1602,Flow_exo_post,3.0.5,59.59113331,
,,,,75,1,69,,,,,,,,,,90,4.6,right,,,,180,0,0.4348791,left,,,,,2,171,2019_Apr_05_1602,Flow_exo_post,3.0.5,59.59113331,
,,,,76,1,70,,,,,,,,,,0,4.6,right,,,,0,1,0.501583,right,,,,,2,171,2019_Apr_05_1602,Flow_exo_post,3.0.5,59.59113331,
,,,,77,1,70,,,,,,,,,,0,4.6,right,,,,180,1,0.4846969,right,,,,,2,171,2019_Apr_05_1602,Flow_exo_post,3.0.5,59.59113331,
,,,,78,1,70,,,,,,,,,,0,4.6,right,,,,0,1,0.5348289,right,,,,,2,171,2019_Apr_05_1602,Flow_exo_post,3.0.5,59.59113331,
,,,,,,,,,,,,,,,,,,,,,,,,,,space,3.9703294,,,2,171,2019_Apr_05_1602,Flow_exo_post,3.0.5,59.59113331,
My state (body feelings, emotions and thoughts) during the task on the computer was similar to the state I had during my music performance.,,,,,,,0,0,0,0,,,,,,,,,,,,,,,,,,2,4.9,2,171,2019_Apr_05_1602,Flow_exo_post,3.0.5,59.59113331
The experience was extremely rewarding.,,,,,,,,,,,0,0,0,19,,,,,,,,,,,,,,5,2.001,2,171,2019_Apr_05_1602,Flow_exo_post,3.0.5,59.59113331,
It was no effort to keep my mind on what was happening.,,,,,,,,,,,0,1,1,4,,,,,,,,,,,,,,5,3.994,2,171,2019_Apr_05_1602,Flow_exo_post,3.0.5,59.59113331,
I felt as though I had everything under control.,,,,,,,,,,,0,2,2,12,,,,,,,,,,,,,,4,1.535,2,171,2019_Apr_05_1602,Flow_exo_post,3.0.5,59.59113331,
I felt that I had everything under control.,,,,,,,,,,,0,3,3,13,,,,,,,,,,,,,,4,1.252,2,171,2019_Apr_05_1602,Flow_exo_post,3.0.5,59.59113331,
Things just seemed to happen automatically.,,,,,,,,,,,0,4,4,21,,,,,,,,,,,,,,5,2.71,2,171,2019_Apr_05_1602,Flow_exo_post,3.0.5,59.59113331,
My attention was focused entirely on what I was doing.,,,,,,,,,,,0,5,5,3,,,,,,,,,,,,,,4,1.57,2,171,2019_Apr_05_1602,Flow_exo_post,3.0.5,59.59113331,
I had a strong sense of what I wanted to accomplish.,,,,,,,,,,,0,6,6,0,,,,,,,,,,,,,,4,2.007,2,171,2019_Apr_05_1602,Flow_exo_post,3.0.5,59.59113331,
I was not worried about what others might be thinking of me.,,,,,,,,,,,0,7,7,16,,,,,,,,,,,,,,3,9.243,2,171,2019_Apr_05_1602,Flow_exo_post,3.0.5,59.59113331,
I was not concerned with how I was presenting myself.,,,,,,,,,,,0,8,8,15,,,,,,,,,,,,,,5,1.968,2,171,2019_Apr_05_1602,Flow_exo_post,3.0.5,59.59113331,
I had no difficulty concentrating.,,,,,,,,,,,0,9,9,6,,,,,,,,,,,,,,5,1.393,2,171,2019_Apr_05_1602,Flow_exo_post,3.0.5,59.59113331,
Time seemed to alter (either slows down or speeds up).,,,,,,,,,,,0,10,10,23,,,,,,,,,,,,,,4,1.946,2,171,2019_Apr_05_1602,Flow_exo_post,3.0.5,59.59113331,
I was not concerned with how others might be evaluating me.,,,,,,,,,,,0,11,11,14,,,,,,,,,,,,,,3,7.293,2,171,2019_Apr_05_1602,Flow_exo_post,3.0.5,59.59113331,
I performed automatically without having to think about it.,,,,,,,,,,,0,12,12,25,,,,,,,,,,,,,,5,1.839,2,171,2019_Apr_05_1602,Flow_exo_post,3.0.5,59.59113331,
I lost my normal awareness of time.,,,,,,,,,,,0,13,13,20,,,,,,,,,,,,,,4,2.164,2,171,2019_Apr_05_1602,Flow_exo_post,3.0.5,59.59113331,
It was really clear to me how my performance was going.,,,,,,,,,,,0,14,14,7,,,,,,,,,,,,,,5,3.292,2,171,2019_Apr_05_1602,Flow_exo_post,3.0.5,59.59113331,
I had total concentration.,,,,,,,,,,,0,15,15,5,,,,,,,,,,,,,,2,5.249,2,171,2019_Apr_05_1602,Flow_exo_post,3.0.5,59.59113331,
The challenge and my skills were at an equally high level.,,,,,,,,,,,0,16,16,10,,,,,,,,,,,,,,3,1.751,2,171,2019_Apr_05_1602,Flow_exo_post,3.0.5,59.59113331,
The experience left me feeling great.,,,,,,,,,,,0,17,17,18,,,,,,,,,,,,,,5,2.78,2,171,2019_Apr_05_1602,Flow_exo_post,3.0.5,59.59113331,
My goals were clearly defined. ,,,,,,,,,,,0,18,18,2,,,,,,,,,,,,,,5,1.667,2,171,2019_Apr_05_1602,Flow_exo_post,3.0.5,59.59113331,
I really enjoyed the experience.,,,,,,,,,,,0,19,19,17,,,,,,,,,,,,,,4,1.29,2,171,2019_Apr_05_1602,Flow_exo_post,3.0.5,59.59113331,
I knew what I want to achieve.,,,,,,,,,,,0,20,20,1,,,,,,,,,,,,,,4,1.105,2,171,2019_Apr_05_1602,Flow_exo_post,3.0.5,59.59113331,
The way time passed seemed to be different from normal.,,,,,,,,,,,0,21,21,24,,,,,,,,,,,,,,2,2.45,2,171,2019_Apr_05_1602,Flow_exo_post,3.0.5,59.59113331,
I felt just the right amount of challenge. ,,,,,,,,,,,0,22,22,11,,,,,,,,,,,,,,4,2.731,2,171,2019_Apr_05_1602,Flow_exo_post,3.0.5,59.59113331,
I had a good idea while I was performing about how well I was doing.,,,,,,,,,,,0,23,23,8,,,,,,,,,,,,,,4,3.751,2,171,2019_Apr_05_1602,Flow_exo_post,3.0.5,59.59113331,
I was challenged, but I believe my skills will allow me to meet that challenge.,,,,,,,,,,,0,24,24,9,,,,,,,,,,,,,,4,2.441,2,171,2019_Apr_05_1602,Flow_exo_post,3.0.5,59.59113331
I did things spontaneously without having to think.,,,,,,,,,,,0,25,25,22,,,,,,,,,,,,,,3,3.009,2,171,2019_Apr_05_1602,Flow_exo_post,3.0.5,59.59113331,
