Stair.thisTrialN;Stair.stepSize;Stair.intensity;Stair2.thisTrialN;Stair2.stepSize;Stair2.intensity;Time_pas_Ans.response;Time_pas_Ans.rt;cueExoPos;targetXOri;targetXPos;CorrectAns;Stair.response;keyPress_2.rt;keyPress_2.rl;cueOri;Stair2.response;keyPress.rt;keyPress.rl;Session;Participant;date;expName;psychopyVersion;frameRate
;;;;;;Friday;75.286;;;;;;;;;;;;1;213;2019_Apr_03_1419;Flow_exo_pre;3.0.6;60.11304944
0;1;81;;;;;;4.6;90;-4.6;left;1;0.434214662;left;;;;;1;213;2019_Apr_03_1419;Flow_exo_pre;3.0.6;60.11304944
1;1;80;;;;;;-4.6;90;4.6;right;1;1.097014961;right;;;;;1;213;2019_Apr_03_1419;Flow_exo_pre;3.0.6;60.11304944
2;1;79;;;;;;4.6;0;-4.6;left;0;1.100016372;right;;;;;1;213;2019_Apr_03_1419;Flow_exo_pre;3.0.6;60.11304944
3;1;80;;;;;;4.6;90;4.6;right;0;1.097747887;left;;;;;1;213;2019_Apr_03_1419;Flow_exo_pre;3.0.6;60.11304944
4;1;81;;;;;;4.6;0;-4.6;left;0;1.100243253;right;;;;;1;213;2019_Apr_03_1419;Flow_exo_pre;3.0.6;60.11304944
5;1;82;;;;;;-4.6;0;4.6;right;0;1.098785178;left;;;;;1;213;2019_Apr_03_1419;Flow_exo_pre;3.0.6;60.11304944
6;1;83;;;;;;-4.6;90;-4.6;left;0;1.098988676;right;;;;;1;213;2019_Apr_03_1419;Flow_exo_pre;3.0.6;60.11304944
7;1;84;;;;;;-4.6;0;4.6;right;0;1.100502356;left;;;;;1;213;2019_Apr_03_1419;Flow_exo_pre;3.0.6;60.11304944
8;1;85;;;;;;-4.6;90;4.6;right;1;1.096366368;right;;;;;1;213;2019_Apr_03_1419;Flow_exo_pre;3.0.6;60.11304944
9;1;85;;;;;;-4.6;90;-4.6;left;0;1.099235535;right;;;;;1;213;2019_Apr_03_1419;Flow_exo_pre;3.0.6;60.11304944
10;1;86;;;;;;-4.6;0;-4.6;left;1;1.098473058;left;;;;;1;213;2019_Apr_03_1419;Flow_exo_pre;3.0.6;60.11304944
11;1;86;;;;;;4.6;0;4.6;right;0;1.10012844;left;;;;;1;213;2019_Apr_03_1419;Flow_exo_pre;3.0.6;60.11304944
12;1;87;;;;;;4.6;90;4.6;right;1;1.097841182;right;;;;;1;213;2019_Apr_03_1419;Flow_exo_pre;3.0.6;60.11304944
13;1;87;;;;;;4.6;90;-4.6;left;0;1.099984324;right;;;;;1;213;2019_Apr_03_1419;Flow_exo_pre;3.0.6;60.11304944
14;1;88;;;;;;-4.6;0;-4.6;left;1;1.099141512;left;;;;;1;213;2019_Apr_03_1419;Flow_exo_pre;3.0.6;60.11304944
15;1;88;;;;;;-4.6;90;4.6;right;0;1.098265675;left;;;;;1;213;2019_Apr_03_1419;Flow_exo_pre;3.0.6;60.11304944
16;1;89;;;;;;4.6;90;4.6;right;1;1.1001997;right;;;;;1;213;2019_Apr_03_1419;Flow_exo_pre;3.0.6;60.11304944
17;1;89;;;;;;4.6;90;-4.6;left;0;1.097960253;right;;;;;1;213;2019_Apr_03_1419;Flow_exo_pre;3.0.6;60.11304944
18;1;90;;;;;;4.6;0;-4.6;left;1;1.100959502;left;;;;;1;213;2019_Apr_03_1419;Flow_exo_pre;3.0.6;60.11304944
19;1;90;;;;;;-4.6;0;-4.6;left;0;1.096972438;right;;;;;1;213;2019_Apr_03_1419;Flow_exo_pre;3.0.6;60.11304944
20;1;91;;;;;;4.6;0;4.6;right;1;1.099784333;right;;;;;1;213;2019_Apr_03_1419;Flow_exo_pre;3.0.6;60.11304944
21;1;91;;;;;;4.6;90;4.6;right;1;1.098757679;right;;;;;1;213;2019_Apr_03_1419;Flow_exo_pre;3.0.6;60.11304944
22;1;91;;;;;;4.6;0;4.6;right;1;1.100161145;right;;;;;1;213;2019_Apr_03_1419;Flow_exo_pre;3.0.6;60.11304944
23;1;90;;;;;;-4.6;90;4.6;right;1;1.098662067;right;;;;;1;213;2019_Apr_03_1419;Flow_exo_pre;3.0.6;60.11304944
24;1;90;;;;;;-4.6;0;4.6;right;1;1.097990299;right;;;;;1;213;2019_Apr_03_1419;Flow_exo_pre;3.0.6;60.11304944
25;1;90;;;;;;4.6;90;4.6;right;1;1.098599542;right;;;;;1;213;2019_Apr_03_1419;Flow_exo_pre;3.0.6;60.11304944
26;1;89;;;;;;-4.6;0;-4.6;left;0;1.101634889;right;;;;;1;213;2019_Apr_03_1419;Flow_exo_pre;3.0.6;60.11304944
27;1;90;;;;;;-4.6;0;-4.6;left;1;1.096617478;left;;;;;1;213;2019_Apr_03_1419;Flow_exo_pre;3.0.6;60.11304944
28;1;90;;;;;;-4.6;90;-4.6;left;1;1.099406247;left;;;;;1;213;2019_Apr_03_1419;Flow_exo_pre;3.0.6;60.11304944
29;1;90;;;;;;-4.6;90;4.6;right;0;1.099513416;left;;;;;1;213;2019_Apr_03_1419;Flow_exo_pre;3.0.6;60.11304944
30;1;91;;;;;;-4.6;90;-4.6;left;0;1.099294867;right;;;;;1;213;2019_Apr_03_1419;Flow_exo_pre;3.0.6;60.11304944
31;1;92;;;;;;4.6;0;4.6;right;0;1.099791301;left;;;;;1;213;2019_Apr_03_1419;Flow_exo_pre;3.0.6;60.11304944
32;1;93;;;;;;4.6;0;4.6;right;1;1.09935366;right;;;;;1;213;2019_Apr_03_1419;Flow_exo_pre;3.0.6;60.11304944
33;1;93;;;;;;-4.6;0;4.6;right;1;1.0983787;right;;;;;1;213;2019_Apr_03_1419;Flow_exo_pre;3.0.6;60.11304944
34;1;93;;;;;;4.6;0;-4.6;left;0;1.100680132;right;;;;;1;213;2019_Apr_03_1419;Flow_exo_pre;3.0.6;60.11304944
35;1;94;;;;;;4.6;0;4.6;right;0;1.097045931;left;;;;;1;213;2019_Apr_03_1419;Flow_exo_pre;3.0.6;60.11304944
36;1;95;;;;;;-4.6;90;-4.6;left;0;1.099177822;right;;;;;1;213;2019_Apr_03_1419;Flow_exo_pre;3.0.6;60.11304944
37;1;96;;;;;;4.6;0;4.6;right;0;1.100568144;left;;;;;1;213;2019_Apr_03_1419;Flow_exo_pre;3.0.6;60.11304944
38;1;97;;;;;;-4.6;0;4.6;right;0;1.09793032;left;;;;;1;213;2019_Apr_03_1419;Flow_exo_pre;3.0.6;60.11304944
39;1;98;;;;;;4.6;0;4.6;right;1;1.097675371;right;;;;;1;213;2019_Apr_03_1419;Flow_exo_pre;3.0.6;60.11304944
40;1;98;;;;;;-4.6;0;-4.6;left;0;1.100825639;right;;;;;1;213;2019_Apr_03_1419;Flow_exo_pre;3.0.6;60.11304944
41;1;99;;;;;;-4.6;0;4.6;right;0;1.097955473;left;;;;;1;213;2019_Apr_03_1419;Flow_exo_pre;3.0.6;60.11304944
42;1;100;;;;;;4.6;0;4.6;right;0;1.099955863;left;;;;;1;213;2019_Apr_03_1419;Flow_exo_pre;3.0.6;60.11304944
43;1;101;;;;;;-4.6;0;-4.6;left;0;1.100041573;right;;;;;1;213;2019_Apr_03_1419;Flow_exo_pre;3.0.6;60.11304944
44;1;102;;;;;;4.6;90;4.6;right;0;1.098029039;left;;;;;1;213;2019_Apr_03_1419;Flow_exo_pre;3.0.6;60.11304944
45;1;103;;;;;;-4.6;0;-4.6;left;0;1.099088531;right;;;;;1;213;2019_Apr_03_1419;Flow_exo_pre;3.0.6;60.11304944
46;1;104;;;;;;4.6;90;4.6;right;0;1.097981101;left;;;;;1;213;2019_Apr_03_1419;Flow_exo_pre;3.0.6;60.11304944
47;1;105;;;;;;4.6;0;4.6;right;1;1.099940047;right;;;;;1;213;2019_Apr_03_1419;Flow_exo_pre;3.0.6;60.11304944
48;1;105;;;;;;-4.6;0;4.6;right;1;1.098510813;right;;;;;1;213;2019_Apr_03_1419;Flow_exo_pre;3.0.6;60.11304944
49;1;105;;;;;;4.6;0;4.6;right;1;1.099567073;right;;;;;1;213;2019_Apr_03_1419;Flow_exo_pre;3.0.6;60.11304944
50;1;104;;;;;;4.6;0;-4.6;left;0;1.09902052;right;;;;;1;213;2019_Apr_03_1419;Flow_exo_pre;3.0.6;60.11304944
51;1;105;;;;;;4.6;90;-4.6;left;1;1.098788249;left;;;;;1;213;2019_Apr_03_1419;Flow_exo_pre;3.0.6;60.11304944
52;1;105;;;;;;4.6;90;4.6;right;0;1.099032562;left;;;;;1;213;2019_Apr_03_1419;Flow_exo_pre;3.0.6;60.11304944
53;1;106;;;;;;-4.6;0;-4.6;left;0;1.098377394;right;;;;;1;213;2019_Apr_03_1419;Flow_exo_pre;3.0.6;60.11304944
54;1;107;;;;;;4.6;90;-4.6;left;1;1.099159989;left;;;;;1;213;2019_Apr_03_1419;Flow_exo_pre;3.0.6;60.11304944
55;1;107;;;;;;4.6;90;-4.6;left;1;1.099020912;left;;;;;1;213;2019_Apr_03_1419;Flow_exo_pre;3.0.6;60.11304944
56;1;107;;;;;;4.6;90;-4.6;left;1;1.099377975;left;;;;;1;213;2019_Apr_03_1419;Flow_exo_pre;3.0.6;60.11304944
57;1;106;;;;;;-4.6;90;-4.6;left;1;1.100370593;left;;;;;1;213;2019_Apr_03_1419;Flow_exo_pre;3.0.6;60.11304944
58;1;106;;;;;;-4.6;0;4.6;right;0;1.097912314;left;;;;;1;213;2019_Apr_03_1419;Flow_exo_pre;3.0.6;60.11304944
59;1;107;;;;;;-4.6;0;-4.6;left;0;1.098354977;right;;;;;1;213;2019_Apr_03_1419;Flow_exo_pre;3.0.6;60.11304944
60;1;108;;;;;;4.6;0;-4.6;left;1;1.099373952;left;;;;;1;213;2019_Apr_03_1419;Flow_exo_pre;3.0.6;60.11304944
61;1;108;;;;;;-4.6;0;-4.6;left;1;1.098364692;left;;;;;1;213;2019_Apr_03_1419;Flow_exo_pre;3.0.6;60.11304944
62;1;108;;;;;;4.6;90;-4.6;left;1;1.099075537;left;;;;;1;213;2019_Apr_03_1419;Flow_exo_pre;3.0.6;60.11304944
63;1;107;;;;;;4.6;0;4.6;right;0;1.098082227;left;;;;;1;213;2019_Apr_03_1419;Flow_exo_pre;3.0.6;60.11304944
64;1;108;;;;;;4.6;90;4.6;right;1;1.099679977;right;;;;;1;213;2019_Apr_03_1419;Flow_exo_pre;3.0.6;60.11304944
65;1;108;;;;;;-4.6;0;4.6;right;1;1.102001066;right;;;;;1;213;2019_Apr_03_1419;Flow_exo_pre;3.0.6;60.11304944
66;1;108;;;;;;-4.6;90;-4.6;left;0;1.096099505;right;;;;;1;213;2019_Apr_03_1419;Flow_exo_pre;3.0.6;60.11304944
67;1;109;;;;;;-4.6;0;-4.6;left;1;1.099718078;left;;;;;1;213;2019_Apr_03_1419;Flow_exo_pre;3.0.6;60.11304944
68;1;109;;;;;;4.6;0;-4.6;left;1;1.098531146;left;;;;;1;213;2019_Apr_03_1419;Flow_exo_pre;3.0.6;60.11304944
69;1;109;;;;;;4.6;90;4.6;right;0;1.09906598;left;;;;;1;213;2019_Apr_03_1419;Flow_exo_pre;3.0.6;60.11304944
70;1;110;;;;;;4.6;0;4.6;right;1;1.098368708;right;;;;;1;213;2019_Apr_03_1419;Flow_exo_pre;3.0.6;60.11304944
71;1;110;;;;;;-4.6;90;-4.6;left;0;1.100239001;right;;;;;1;213;2019_Apr_03_1419;Flow_exo_pre;3.0.6;60.11304944
72;1;111;;;;;;-4.6;90;4.6;right;0;1.098056153;left;;;;;1;213;2019_Apr_03_1419;Flow_exo_pre;3.0.6;60.11304944
73;1;112;;;;;;-4.6;0;-4.6;left;0;1.09907513;right;;;;;1;213;2019_Apr_03_1419;Flow_exo_pre;3.0.6;60.11304944
74;1;113;;;;;;-4.6;0;4.6;right;0;1.099864319;left;;;;;1;213;2019_Apr_03_1419;Flow_exo_pre;3.0.6;60.11304944
75;1;114;;;;;;4.6;90;4.6;right;1;1.100155583;right;;;;;1;213;2019_Apr_03_1419;Flow_exo_pre;3.0.6;60.11304944
76;1;114;;;;;;4.6;0;-4.6;left;0;1.097512148;right;;;;;1;213;2019_Apr_03_1419;Flow_exo_pre;3.0.6;60.11304944
77;1;115;;;;;;4.6;0;-4.6;left;1;1.099275783;left;;;;;1;213;2019_Apr_03_1419;Flow_exo_pre;3.0.6;60.11304944
78;1;115;;;;;;4.6;0;4.6;right;1;1.099959924;right;;;;;1;213;2019_Apr_03_1419;Flow_exo_pre;3.0.6;60.11304944
79;1;115;;;;;;-4.6;0;-4.6;left;0;1.099856959;right;;;;;1;213;2019_Apr_03_1419;Flow_exo_pre;3.0.6;60.11304944
80;1;116;;;;;;4.6;0;4.6;right;0;1.09892421;left;;;;;1;213;2019_Apr_03_1419;Flow_exo_pre;3.0.6;60.11304944
81;1;117;;;;;;4.6;0;-4.6;left;0;1.100653767;right;;;;;1;213;2019_Apr_03_1419;Flow_exo_pre;3.0.6;60.11304944
82;1;118;;;;;;4.6;90;4.6;right;1;1.097049323;right;;;;;1;213;2019_Apr_03_1419;Flow_exo_pre;3.0.6;60.11304944
83;1;118;;;;;;-4.6;0;4.6;right;1;1.098419526;right;;;;;1;213;2019_Apr_03_1419;Flow_exo_pre;3.0.6;60.11304944
84;1;118;;;;;;-4.6;0;4.6;right;0;1.101565993;left;;;;;1;213;2019_Apr_03_1419;Flow_exo_pre;3.0.6;60.11304944
85;1;119;;;;;;-4.6;90;-4.6;left;0;1.095806942;right;;;;;1;213;2019_Apr_03_1419;Flow_exo_pre;3.0.6;60.11304944
86;1;120;;;;;;-4.6;0;-4.6;left;1;1.098846054;left;;;;;1;213;2019_Apr_03_1419;Flow_exo_pre;3.0.6;60.11304944
87;1;120;;;;;;4.6;0;-4.6;left;1;1.099037987;left;;;;;1;213;2019_Apr_03_1419;Flow_exo_pre;3.0.6;60.11304944
88;1;120;;;;;;-4.6;90;-4.6;left;0;1.098659074;right;;;;;1;213;2019_Apr_03_1419;Flow_exo_pre;3.0.6;60.11304944
89;1;121;;;;;;4.6;0;-4.6;left;1;1.099674448;left;;;;;1;213;2019_Apr_03_1419;Flow_exo_pre;3.0.6;60.11304944
90;1;121;;;;;;4.6;0;-4.6;left;0;1.097449849;right;;;;;1;213;2019_Apr_03_1419;Flow_exo_pre;3.0.6;60.11304944
91;1;122;;;;;;4.6;0;-4.6;left;0;1.099849595;right;;;;;1;213;2019_Apr_03_1419;Flow_exo_pre;3.0.6;60.11304944
92;1;123;;;;;;4.6;90;-4.6;left;0;1.099487193;right;;;;;1;213;2019_Apr_03_1419;Flow_exo_pre;3.0.6;60.11304944
93;1;124;;;;;;4.6;0;-4.6;left;0;1.098441238;right;;;;;1;213;2019_Apr_03_1419;Flow_exo_pre;3.0.6;60.11304944
94;1;125;;;;;;-4.6;0;-4.6;left;1;1.099736344;left;;;;;1;213;2019_Apr_03_1419;Flow_exo_pre;3.0.6;60.11304944
95;1;125;;;;;;-4.6;90;-4.6;left;1;1.09981295;left;;;;;1;213;2019_Apr_03_1419;Flow_exo_pre;3.0.6;60.11304944
96;1;125;;;;;;-4.6;90;-4.6;left;1;1.099120839;left;;;;;1;213;2019_Apr_03_1419;Flow_exo_pre;3.0.6;60.11304944
97;1;124;;;;;;4.6;90;-4.6;left;1;1.098327204;left;;;;;1;213;2019_Apr_03_1419;Flow_exo_pre;3.0.6;60.11304944
98;1;124;;;;;;-4.6;90;4.6;right;1;1.099197828;right;;;;;1;213;2019_Apr_03_1419;Flow_exo_pre;3.0.6;60.11304944
99;1;124;;;;;;-4.6;0;-4.6;left;0;1.09866391;right;;;;;1;213;2019_Apr_03_1419;Flow_exo_pre;3.0.6;60.11304944
100;1;125;;;;;;4.6;0;-4.6;left;1;1.098296106;left;;;;;1;213;2019_Apr_03_1419;Flow_exo_pre;3.0.6;60.11304944
101;1;125;;;;;;4.6;90;4.6;right;0;1.099760832;left;;;;;1;213;2019_Apr_03_1419;Flow_exo_pre;3.0.6;60.11304944
102;1;126;;;;;;-4.6;0;-4.6;left;0;1.099483031;right;;;;;1;213;2019_Apr_03_1419;Flow_exo_pre;3.0.6;60.11304944
103;1;127;;;;;;4.6;0;4.6;right;0;1.099692331;left;;;;;1;213;2019_Apr_03_1419;Flow_exo_pre;3.0.6;60.11304944
104;1;128;;;;;;-4.6;0;-4.6;left;0;1.099263617;right;;;;;1;213;2019_Apr_03_1419;Flow_exo_pre;3.0.6;60.11304944
105;1;129;;;;;;-4.6;0;-4.6;left;1;1.099816055;left;;;;;1;213;2019_Apr_03_1419;Flow_exo_pre;3.0.6;60.11304944
106;1;129;;;;;;-4.6;0;4.6;right;0;1.097495584;left;;;;;1;213;2019_Apr_03_1419;Flow_exo_pre;3.0.6;60.11304944
107;1;130;;;;;;4.6;90;4.6;right;1;1.098862678;right;;;;;1;213;2019_Apr_03_1419;Flow_exo_pre;3.0.6;60.11304944
108;1;130;;;;;;-4.6;90;4.6;right;1;1.099677281;right;;;;;1;213;2019_Apr_03_1419;Flow_exo_pre;3.0.6;60.11304944
109;1;130;;;;;;4.6;90;4.6;right;1;1.097702924;right;;;;;1;213;2019_Apr_03_1419;Flow_exo_pre;3.0.6;60.11304944
110;1;129;;;;;;-4.6;0;4.6;right;1;1.099632872;right;;;;;1;213;2019_Apr_03_1419;Flow_exo_pre;3.0.6;60.11304944
111;1;129;;;;;;4.6;90;4.6;right;1;1.09729478;right;;;;;1;213;2019_Apr_03_1419;Flow_exo_pre;3.0.6;60.11304944
112;1;129;;;;;;4.6;90;4.6;right;1;1.100024122;right;;;;;1;213;2019_Apr_03_1419;Flow_exo_pre;3.0.6;60.11304944
113;1;128;;;;;;-4.6;0;4.6;right;1;1.098500712;right;;;;;1;213;2019_Apr_03_1419;Flow_exo_pre;3.0.6;60.11304944
114;1;128;;;;;;-4.6;0;-4.6;left;0;1.099663643;right;;;;;1;213;2019_Apr_03_1419;Flow_exo_pre;3.0.6;60.11304944
115;1;129;;;;;;4.6;90;4.6;right;0;1.09924012;left;;;;;1;213;2019_Apr_03_1419;Flow_exo_pre;3.0.6;60.11304944
116;1;130;;;;;;-4.6;90;4.6;right;1;1.100676366;right;;;;;1;213;2019_Apr_03_1419;Flow_exo_pre;3.0.6;60.11304944
117;1;130;;;;;;4.6;0;4.6;right;0;1.096797365;left;;;;;1;213;2019_Apr_03_1419;Flow_exo_pre;3.0.6;60.11304944
118;1;131;;;;;;-4.6;0;4.6;right;1;1.097733182;right;;;;;1;213;2019_Apr_03_1419;Flow_exo_pre;3.0.6;60.11304944
119;1;131;;;;;;4.6;90;-4.6;left;1;1.102560611;left;;;;;1;213;2019_Apr_03_1419;Flow_exo_pre;3.0.6;60.11304944
120;1;131;;;;;;4.6;90;-4.6;left;0;1.096139908;right;;;;;1;213;2019_Apr_03_1419;Flow_exo_pre;3.0.6;60.11304944
121;1;132;;;;;;4.6;0;-4.6;left;0;1.100124921;right;;;;;1;213;2019_Apr_03_1419;Flow_exo_pre;3.0.6;60.11304944
122;1;133;;;;;;4.6;90;-4.6;left;1;1.09881166;left;;;;;1;213;2019_Apr_03_1419;Flow_exo_pre;3.0.6;60.11304944
123;1;133;;;;;;4.6;90;4.6;right;0;1.099025078;left;;;;;1;213;2019_Apr_03_1419;Flow_exo_pre;3.0.6;60.11304944
124;1;134;;;;;;4.6;90;4.6;right;1;1.098072468;right;;;;;1;213;2019_Apr_03_1419;Flow_exo_pre;3.0.6;60.11304944
125;1;134;;;;;;4.6;0;4.6;right;1;1.09950006;right;;;;;1;213;2019_Apr_03_1419;Flow_exo_pre;3.0.6;60.11304944
126;1;134;;;;;;4.6;0;-4.6;left;0;1.099611828;right;;;;;1;213;2019_Apr_03_1419;Flow_exo_pre;3.0.6;60.11304944
127;1;135;;;;;;-4.6;0;4.6;right;0;1.100532018;left;;;;;1;213;2019_Apr_03_1419;Flow_exo_pre;3.0.6;60.11304944
128;1;136;;;;;;4.6;90;-4.6;left;0;1.095656095;right;;;;;1;213;2019_Apr_03_1419;Flow_exo_pre;3.0.6;60.11304944
129;1;137;;;;;;-4.6;90;-4.6;left;1;1.099741862;left;;;;;1;213;2019_Apr_03_1419;Flow_exo_pre;3.0.6;60.11304944
130;1;137;;;;;;-4.6;90;-4.6;left;1;1.098984184;left;;;;;1;213;2019_Apr_03_1419;Flow_exo_pre;3.0.6;60.11304944
131;1;137;;;;;;-4.6;90;-4.6;left;1;1.099512847;left;;;;;1;213;2019_Apr_03_1419;Flow_exo_pre;3.0.6;60.11304944
;;;0;1;81;;;;90;-4.6;left;;;;180;1;1.096591306;left;1;213;2019_Apr_03_1419;Flow_exo_pre;3.0.6;60.11304944
;;;1;1;80;;;;90;4.6;right;;;;180;0;1.09822412;left;1;213;2019_Apr_03_1419;Flow_exo_pre;3.0.6;60.11304944
;;;2;1;81;;;;90;4.6;right;;;;0;1;1.099978299;right;1;213;2019_Apr_03_1419;Flow_exo_pre;3.0.6;60.11304944
;;;3;1;81;;;;0;-4.6;left;;;;180;0;1.099927887;right;1;213;2019_Apr_03_1419;Flow_exo_pre;3.0.6;60.11304944
;;;4;1;82;;;;90;4.6;right;;;;0;0;1.099509567;left;1;213;2019_Apr_03_1419;Flow_exo_pre;3.0.6;60.11304944
;;;5;1;83;;;;90;-4.6;left;;;;180;0;1.098828289;right;1;213;2019_Apr_03_1419;Flow_exo_pre;3.0.6;60.11304944
;;;6;1;84;;;;90;4.6;right;;;;0;0;1.100315124;left;1;213;2019_Apr_03_1419;Flow_exo_pre;3.0.6;60.11304944
;;;7;1;85;;;;0;-4.6;left;;;;180;0;1.097646958;right;1;213;2019_Apr_03_1419;Flow_exo_pre;3.0.6;60.11304944
;;;8;1;86;;;;90;4.6;right;;;;0;0;1.10036265;left;1;213;2019_Apr_03_1419;Flow_exo_pre;3.0.6;60.11304944
;;;9;1;87;;;;90;-4.6;left;;;;0;0;1.098426593;right;1;213;2019_Apr_03_1419;Flow_exo_pre;3.0.6;60.11304944
;;;10;1;88;;;;0;4.6;right;;;;0;0;1.098143938;left;1;213;2019_Apr_03_1419;Flow_exo_pre;3.0.6;60.11304944
;;;11;1;89;;;;90;4.6;right;;;;180;1;1.101689327;right;1;213;2019_Apr_03_1419;Flow_exo_pre;3.0.6;60.11304944
;;;12;1;89;;;;90;-4.6;left;;;;180;0;1.096705818;right;1;213;2019_Apr_03_1419;Flow_exo_pre;3.0.6;60.11304944
;;;13;1;90;;;;0;-4.6;left;;;;180;1;1.099648416;left;1;213;2019_Apr_03_1419;Flow_exo_pre;3.0.6;60.11304944
;;;14;1;90;;;;0;-4.6;left;;;;0;1;1.10166354;left;1;213;2019_Apr_03_1419;Flow_exo_pre;3.0.6;60.11304944
;;;15;1;90;;;;90;4.6;right;;;;180;0;1.098135541;left;1;213;2019_Apr_03_1419;Flow_exo_pre;3.0.6;60.11304944
;;;16;1;91;;;;90;4.6;right;;;;180;1;1.09779501;right;1;213;2019_Apr_03_1419;Flow_exo_pre;3.0.6;60.11304944
;;;17;1;91;;;;0;-4.6;left;;;;0;0;1.100199742;right;1;213;2019_Apr_03_1419;Flow_exo_pre;3.0.6;60.11304944
;;;18;1;92;;;;90;-4.6;left;;;;180;1;1.099019552;left;1;213;2019_Apr_03_1419;Flow_exo_pre;3.0.6;60.11304944
;;;19;1;92;;;;0;4.6;right;;;;0;0;1.09890868;left;1;213;2019_Apr_03_1419;Flow_exo_pre;3.0.6;60.11304944
;;;20;1;93;;;;0;4.6;right;;;;0;1;1.099675734;right;1;213;2019_Apr_03_1419;Flow_exo_pre;3.0.6;60.11304944
;;;21;1;93;;;;0;-4.6;left;;;;180;0;1.098988837;right;1;213;2019_Apr_03_1419;Flow_exo_pre;3.0.6;60.11304944
;;;22;1;94;;;;90;4.6;right;;;;180;0;1.101644778;left;1;213;2019_Apr_03_1419;Flow_exo_pre;3.0.6;60.11304944
;;;23;1;95;;;;90;-4.6;left;;;;0;0;1.097617537;right;1;213;2019_Apr_03_1419;Flow_exo_pre;3.0.6;60.11304944
;;;24;1;96;;;;90;-4.6;left;;;;180;1;1.099700471;left;1;213;2019_Apr_03_1419;Flow_exo_pre;3.0.6;60.11304944
;;;25;1;96;;;;0;-4.6;left;;;;180;1;1.0991756;left;1;213;2019_Apr_03_1419;Flow_exo_pre;3.0.6;60.11304944
;;;26;1;96;;;;90;-4.6;left;;;;180;1;1.100238343;left;1;213;2019_Apr_03_1419;Flow_exo_pre;3.0.6;60.11304944
;;;27;1;95;;;;90;-4.6;left;;;;0;1;1.099198168;left;1;213;2019_Apr_03_1419;Flow_exo_pre;3.0.6;60.11304944
;;;28;1;95;;;;0;-4.6;left;;;;0;1;1.098489526;left;1;213;2019_Apr_03_1419;Flow_exo_pre;3.0.6;60.11304944
;;;29;1;95;;;;90;4.6;right;;;;180;0;1.098578256;left;1;213;2019_Apr_03_1419;Flow_exo_pre;3.0.6;60.11304944
;;;30;1;96;;;;90;4.6;right;;;;180;1;1.099606641;right;1;213;2019_Apr_03_1419;Flow_exo_pre;3.0.6;60.11304944
;;;31;1;96;;;;90;4.6;right;;;;0;1;1.098543438;right;1;213;2019_Apr_03_1419;Flow_exo_pre;3.0.6;60.11304944
;;;32;1;96;;;;0;4.6;right;;;;180;1;1.099132334;right;1;213;2019_Apr_03_1419;Flow_exo_pre;3.0.6;60.11304944
;;;33;1;95;;;;90;-4.6;left;;;;0;0;1.098975471;right;1;213;2019_Apr_03_1419;Flow_exo_pre;3.0.6;60.11304944
;;;34;1;96;;;;0;4.6;right;;;;180;0;1.098185189;left;1;213;2019_Apr_03_1419;Flow_exo_pre;3.0.6;60.11304944
;;;35;1;97;;;;0;4.6;right;;;;0;1;1.099647095;right;1;213;2019_Apr_03_1419;Flow_exo_pre;3.0.6;60.11304944
;;;36;1;97;;;;0;-4.6;left;;;;0;0;1.099269251;right;1;213;2019_Apr_03_1419;Flow_exo_pre;3.0.6;60.11304944
;;;37;1;98;;;;0;4.6;right;;;;0;0;1.098192584;left;1;213;2019_Apr_03_1419;Flow_exo_pre;3.0.6;60.11304944
;;;38;1;99;;;;0;4.6;right;;;;0;1;1.099144503;right;1;213;2019_Apr_03_1419;Flow_exo_pre;3.0.6;60.11304944
;;;39;1;99;;;;90;4.6;right;;;;180;1;1.09873085;right;1;213;2019_Apr_03_1419;Flow_exo_pre;3.0.6;60.11304944
;;;40;1;99;;;;90;-4.6;left;;;;180;0;1.099764795;right;1;213;2019_Apr_03_1419;Flow_exo_pre;3.0.6;60.11304944
;;;41;1;100;;;;0;4.6;right;;;;180;0;1.098416823;left;1;213;2019_Apr_03_1419;Flow_exo_pre;3.0.6;60.11304944
;;;42;1;101;;;;90;-4.6;left;;;;0;0;1.098909669;right;1;213;2019_Apr_03_1419;Flow_exo_pre;3.0.6;60.11304944
;;;43;1;102;;;;0;-4.6;left;;;;180;1;1.098621105;left;1;213;2019_Apr_03_1419;Flow_exo_pre;3.0.6;60.11304944
;;;44;1;102;;;;0;-4.6;left;;;;180;1;1.099243285;left;1;213;2019_Apr_03_1419;Flow_exo_pre;3.0.6;60.11304944
;;;45;1;102;;;;0;-4.6;left;;;;180;1;1.100592207;left;1;213;2019_Apr_03_1419;Flow_exo_pre;3.0.6;60.11304944
;;;46;1;101;;;;90;-4.6;left;;;;0;1;1.098656677;left;1;213;2019_Apr_03_1419;Flow_exo_pre;3.0.6;60.11304944
;;;47;1;101;;;;0;4.6;right;;;;0;1;1.098886552;right;1;213;2019_Apr_03_1419;Flow_exo_pre;3.0.6;60.11304944
;;;48;1;101;;;;0;-4.6;left;;;;0;0;1.099308399;right;1;213;2019_Apr_03_1419;Flow_exo_pre;3.0.6;60.11304944
;;;49;1;102;;;;0;-4.6;left;;;;0;1;1.09851387;left;1;213;2019_Apr_03_1419;Flow_exo_pre;3.0.6;60.11304944
;;;50;1;102;;;;0;4.6;right;;;;180;0;1.099301744;left;1;213;2019_Apr_03_1419;Flow_exo_pre;3.0.6;60.11304944
;;;51;1;103;;;;90;-4.6;left;;;;0;0;1.099717389;right;1;213;2019_Apr_03_1419;Flow_exo_pre;3.0.6;60.11304944
;;;52;1;104;;;;0;-4.6;left;;;;0;1;1.099542358;left;1;213;2019_Apr_03_1419;Flow_exo_pre;3.0.6;60.11304944
;;;53;1;104;;;;90;4.6;right;;;;0;0;1.098913811;left;1;213;2019_Apr_03_1419;Flow_exo_pre;3.0.6;60.11304944
;;;54;1;105;;;;0;-4.6;left;;;;0;0;1.098358757;right;1;213;2019_Apr_03_1419;Flow_exo_pre;3.0.6;60.11304944
;;;55;1;106;;;;0;-4.6;left;;;;180;1;1.100082076;left;1;213;2019_Apr_03_1419;Flow_exo_pre;3.0.6;60.11304944
;;;56;1;106;;;;90;-4.6;left;;;;180;1;1.100314341;left;1;213;2019_Apr_03_1419;Flow_exo_pre;3.0.6;60.11304944
;;;57;1;106;;;;90;-4.6;left;;;;0;1;1.098268017;left;1;213;2019_Apr_03_1419;Flow_exo_pre;3.0.6;60.11304944
;;;58;1;105;;;;0;-4.6;left;;;;0;1;1.099878383;left;1;213;2019_Apr_03_1419;Flow_exo_pre;3.0.6;60.11304944
;;;59;1;105;;;;0;-4.6;left;;;;0;1;1.099066954;left;1;213;2019_Apr_03_1419;Flow_exo_pre;3.0.6;60.11304944
;;;60;1;105;;;;0;4.6;right;;;;0;0;1.099812436;left;1;213;2019_Apr_03_1419;Flow_exo_pre;3.0.6;60.11304944
;;;61;1;106;;;;90;-4.6;left;;;;0;0;1.099043361;right;1;213;2019_Apr_03_1419;Flow_exo_pre;3.0.6;60.11304944
;;;62;1;107;;;;90;-4.6;left;;;;180;1;1.100340866;left;1;213;2019_Apr_03_1419;Flow_exo_pre;3.0.6;60.11304944
;;;63;1;107;;;;0;4.6;right;;;;0;0;1.098293986;left;1;213;2019_Apr_03_1419;Flow_exo_pre;3.0.6;60.11304944
;;;64;1;108;;;;0;4.6;right;;;;180;1;1.099283037;right;1;213;2019_Apr_03_1419;Flow_exo_pre;3.0.6;60.11304944
;;;65;1;108;;;;0;4.6;right;;;;0;1;1.102041479;right;1;213;2019_Apr_03_1419;Flow_exo_pre;3.0.6;60.11304944
;;;66;1;108;;;;0;-4.6;left;;;;180;0;1.098051873;right;1;213;2019_Apr_03_1419;Flow_exo_pre;3.0.6;60.11304944
;;;67;1;109;;;;90;4.6;right;;;;0;0;1.097993106;left;1;213;2019_Apr_03_1419;Flow_exo_pre;3.0.6;60.11304944
;;;68;1;110;;;;0;-4.6;left;;;;0;0;1.1024948;right;1;213;2019_Apr_03_1419;Flow_exo_pre;3.0.6;60.11304944
;;;69;1;111;;;;90;4.6;right;;;;0;0;1.097262328;left;1;213;2019_Apr_03_1419;Flow_exo_pre;3.0.6;60.11304944
;;;70;1;112;;;;0;4.6;right;;;;180;1;1.098086141;right;1;213;2019_Apr_03_1419;Flow_exo_pre;3.0.6;60.11304944
;;;71;1;112;;;;0;-4.6;left;;;;0;0;1.10007938;right;1;213;2019_Apr_03_1419;Flow_exo_pre;3.0.6;60.11304944
;;;72;1;113;;;;90;4.6;right;;;;180;0;1.099033202;left;1;213;2019_Apr_03_1419;Flow_exo_pre;3.0.6;60.11304944
;;;73;1;114;;;;90;4.6;right;;;;0;0;1.099603379;left;1;213;2019_Apr_03_1419;Flow_exo_pre;3.0.6;60.11304944
;;;74;1;115;;;;90;-4.6;left;;;;0;0;1.098353;right;1;213;2019_Apr_03_1419;Flow_exo_pre;3.0.6;60.11304944
;;;75;1;116;;;;90;4.6;right;;;;0;0;1.100120343;left;1;213;2019_Apr_03_1419;Flow_exo_pre;3.0.6;60.11304944
;;;76;1;117;;;;90;4.6;right;;;;180;1;1.10076707;right;1;213;2019_Apr_03_1419;Flow_exo_pre;3.0.6;60.11304944
;;;77;1;117;;;;0;4.6;right;;;;0;1;1.098271913;right;1;213;2019_Apr_03_1419;Flow_exo_pre;3.0.6;60.11304944
;;;78;1;117;;;;0;-4.6;left;;;;180;0;1.098152829;right;1;213;2019_Apr_03_1419;Flow_exo_pre;3.0.6;60.11304944
;;;79;1;118;;;;90;4.6;right;;;;0;0;1.099794489;left;1;213;2019_Apr_03_1419;Flow_exo_pre;3.0.6;60.11304944
;;;80;1;119;;;;0;4.6;right;;;;0;1;1.098989781;right;1;213;2019_Apr_03_1419;Flow_exo_pre;3.0.6;60.11304944
;;;81;1;119;;;;90;-4.6;left;;;;0;0;1.099037305;right;1;213;2019_Apr_03_1419;Flow_exo_pre;3.0.6;60.11304944
;;;82;1;120;;;;0;4.6;right;;;;180;0;1.098906248;left;1;213;2019_Apr_03_1419;Flow_exo_pre;3.0.6;60.11304944
;;;83;1;121;;;;90;-4.6;left;;;;0;0;1.10004598;right;1;213;2019_Apr_03_1419;Flow_exo_pre;3.0.6;60.11304944
;;;84;1;122;;;;90;4.6;right;;;;180;0;1.099265822;left;1;213;2019_Apr_03_1419;Flow_exo_pre;3.0.6;60.11304944
;;;85;1;123;;;;90;-4.6;left;;;;0;0;1.098163113;right;1;213;2019_Apr_03_1419;Flow_exo_pre;3.0.6;60.11304944
;;;86;1;124;;;;0;-4.6;left;;;;0;0;1.099581383;right;1;213;2019_Apr_03_1419;Flow_exo_pre;3.0.6;60.11304944
;;;87;1;125;;;;90;-4.6;left;;;;180;1;1.099898902;left;1;213;2019_Apr_03_1419;Flow_exo_pre;3.0.6;60.11304944
;;;88;1;125;;;;90;-4.6;left;;;;0;1;1.099285144;left;1;213;2019_Apr_03_1419;Flow_exo_pre;3.0.6;60.11304944
;;;89;1;125;;;;0;4.6;right;;;;180;0;1.099584625;left;1;213;2019_Apr_03_1419;Flow_exo_pre;3.0.6;60.11304944
;;;90;1;126;;;;0;-4.6;left;;;;0;0;1.098275484;right;1;213;2019_Apr_03_1419;Flow_exo_pre;3.0.6;60.11304944
;;;91;1;127;;;;0;-4.6;left;;;;180;1;1.099541546;left;1;213;2019_Apr_03_1419;Flow_exo_pre;3.0.6;60.11304944
;;;92;1;127;;;;90;-4.6;left;;;;180;1;1.09991359;left;1;213;2019_Apr_03_1419;Flow_exo_pre;3.0.6;60.11304944
;;;93;1;127;;;;0;4.6;right;;;;180;0;1.099727671;left;1;213;2019_Apr_03_1419;Flow_exo_pre;3.0.6;60.11304944
;;;94;1;128;;;;90;-4.6;left;;;;180;0;1.097905993;right;1;213;2019_Apr_03_1419;Flow_exo_pre;3.0.6;60.11304944
;;;95;1;129;;;;0;-4.6;left;;;;180;1;1.100284801;left;1;213;2019_Apr_03_1419;Flow_exo_pre;3.0.6;60.11304944
;;;96;1;129;;;;90;-4.6;left;;;;180;1;1.09878268;left;1;213;2019_Apr_03_1419;Flow_exo_pre;3.0.6;60.11304944
;;;97;1;129;;;;0;-4.6;left;;;;0;1;1.098645012;left;1;213;2019_Apr_03_1419;Flow_exo_pre;3.0.6;60.11304944
;;;98;1;128;;;;0;-4.6;left;;;;180;1;1.098979918;left;1;213;2019_Apr_03_1419;Flow_exo_pre;3.0.6;60.11304944
;;;99;1;128;;;;90;-4.6;left;;;;180;1;1.100692862;left;1;213;2019_Apr_03_1419;Flow_exo_pre;3.0.6;60.11304944
;;;100;1;128;;;;0;4.6;right;;;;0;0;1.098211442;left;1;213;2019_Apr_03_1419;Flow_exo_pre;3.0.6;60.11304944
;;;101;1;129;;;;0;4.6;right;;;;0;1;1.099206709;right;1;213;2019_Apr_03_1419;Flow_exo_pre;3.0.6;60.11304944
;;;102;1;129;;;;90;4.6;right;;;;0;1;1.100277363;right;1;213;2019_Apr_03_1419;Flow_exo_pre;3.0.6;60.11304944
;;;103;1;129;;;;0;4.6;right;;;;180;1;1.099546001;right;1;213;2019_Apr_03_1419;Flow_exo_pre;3.0.6;60.11304944
;;;104;1;128;;;;0;-4.6;left;;;;0;0;1.098319816;right;1;213;2019_Apr_03_1419;Flow_exo_pre;3.0.6;60.11304944
;;;105;1;129;;;;90;4.6;right;;;;180;0;1.098700533;left;1;213;2019_Apr_03_1419;Flow_exo_pre;3.0.6;60.11304944
;;;106;1;130;;;;90;4.6;right;;;;180;0;1.098990958;left;1;213;2019_Apr_03_1419;Flow_exo_pre;3.0.6;60.11304944
;;;107;1;131;;;;90;-4.6;left;;;;0;0;1.099378479;right;1;213;2019_Apr_03_1419;Flow_exo_pre;3.0.6;60.11304944
;;;108;1;132;;;;90;-4.6;left;;;;180;1;1.099303105;left;1;213;2019_Apr_03_1419;Flow_exo_pre;3.0.6;60.11304944
;;;109;1;132;;;;90;4.6;right;;;;180;0;1.098673361;left;1;213;2019_Apr_03_1419;Flow_exo_pre;3.0.6;60.11304944
;;;110;1;133;;;;90;-4.6;left;;;;0;0;1.099608664;right;1;213;2019_Apr_03_1419;Flow_exo_pre;3.0.6;60.11304944
;;;111;1;134;;;;0;4.6;right;;;;0;1;1.100883003;right;1;213;2019_Apr_03_1419;Flow_exo_pre;3.0.6;60.11304944
;;;112;1;134;;;;90;4.6;right;;;;0;1;1.097502093;right;1;213;2019_Apr_03_1419;Flow_exo_pre;3.0.6;60.11304944
;;;113;1;134;;;;0;-4.6;left;;;;0;0;1.099459673;right;1;213;2019_Apr_03_1419;Flow_exo_pre;3.0.6;60.11304944
;;;114;1;135;;;;0;4.6;right;;;;0;0;1.100034512;left;1;213;2019_Apr_03_1419;Flow_exo_pre;3.0.6;60.11304944
;;;115;1;136;;;;0;4.6;right;;;;180;1;1.09838975;right;1;213;2019_Apr_03_1419;Flow_exo_pre;3.0.6;60.11304944
;;;116;1;136;;;;90;-4.6;left;;;;180;0;1.100462156;right;1;213;2019_Apr_03_1419;Flow_exo_pre;3.0.6;60.11304944
;;;117;1;137;;;;0;-4.6;left;;;;0;1;1.097989256;left;1;213;2019_Apr_03_1419;Flow_exo_pre;3.0.6;60.11304944
;;;118;1;137;;;;90;-4.6;left;;;;0;1;1.098764971;left;1;213;2019_Apr_03_1419;Flow_exo_pre;3.0.6;60.11304944
;;;119;1;137;;;;0;-4.6;left;;;;0;0;1.102190104;right;1;213;2019_Apr_03_1419;Flow_exo_pre;3.0.6;60.11304944
;;;120;1;138;;;;0;4.6;right;;;;0;0;1.096911759;left;1;213;2019_Apr_03_1419;Flow_exo_pre;3.0.6;60.11304944
;;;121;1;139;;;;90;-4.6;left;;;;0;0;1.10053292;right;1;213;2019_Apr_03_1419;Flow_exo_pre;3.0.6;60.11304944
;;;122;1;140;;;;90;4.6;right;;;;180;1;1.09892907;right;1;213;2019_Apr_03_1419;Flow_exo_pre;3.0.6;60.11304944
;;;123;1;140;;;;90;-4.6;left;;;;180;0;1.099041671;right;1;213;2019_Apr_03_1419;Flow_exo_pre;3.0.6;60.11304944
;;;124;1;141;;;;0;-4.6;left;;;;0;1;1.100000039;left;1;213;2019_Apr_03_1419;Flow_exo_pre;3.0.6;60.11304944
;;;125;1;141;;;;90;4.6;right;;;;0;0;1.099618046;left;1;213;2019_Apr_03_1419;Flow_exo_pre;3.0.6;60.11304944
;;;126;1;142;;;;0;-4.6;left;;;;180;0;1.098843971;right;1;213;2019_Apr_03_1419;Flow_exo_pre;3.0.6;60.11304944
;;;127;1;143;;;;90;4.6;right;;;;180;0;1.100699273;left;1;213;2019_Apr_03_1419;Flow_exo_pre;3.0.6;60.11304944
;;;128;1;144;;;;90;4.6;right;;;;0;0;1.097205723;left;1;213;2019_Apr_03_1419;Flow_exo_pre;3.0.6;60.11304944
;;;129;1;145;;;;90;4.6;right;;;;0;1;1.098502397;right;1;213;2019_Apr_03_1419;Flow_exo_pre;3.0.6;60.11304944
;;;130;1;145;;;;90;-4.6;left;;;;0;0;1.102520822;right;1;213;2019_Apr_03_1419;Flow_exo_pre;3.0.6;60.11304944
;;;131;1;146;;;;90;4.6;right;;;;180;0;1.095827111;left;1;213;2019_Apr_03_1419;Flow_exo_pre;3.0.6;60.11304944
;;;132;1;147;;;;0;4.6;right;;;;180;1;1.098988386;right;1;213;2019_Apr_03_1419;Flow_exo_pre;3.0.6;60.11304944
;;;133;1;147;;;;90;-4.6;left;;;;180;0;1.099647815;right;1;213;2019_Apr_03_1419;Flow_exo_pre;3.0.6;60.11304944
;;;134;1;148;;;;90;4.6;right;;;;0;0;1.098386382;left;1;213;2019_Apr_03_1419;Flow_exo_pre;3.0.6;60.11304944
;;;135;1;149;;;;0;4.6;right;;;;0;1;1.100250939;right;1;213;2019_Apr_03_1419;Flow_exo_pre;3.0.6;60.11304944
;;;136;1;149;;;;90;4.6;right;;;;180;1;1.098748385;right;1;213;2019_Apr_03_1419;Flow_exo_pre;3.0.6;60.11304944
;;;137;1;149;;;;90;-4.6;left;;;;180;0;1.100669053;right;1;213;2019_Apr_03_1419;Flow_exo_pre;3.0.6;60.11304944
;;;138;1;150;;;;90;4.6;right;;;;0;0;1.100227909;left;1;213;2019_Apr_03_1419;Flow_exo_pre;3.0.6;60.11304944
;;;139;1;151;;;;0;4.6;right;;;;0;1;1.097750149;right;1;213;2019_Apr_03_1419;Flow_exo_pre;3.0.6;60.11304944
;;;140;1;151;;;;0;4.6;right;;;;0;1;1.099365776;right;1;213;2019_Apr_03_1419;Flow_exo_pre;3.0.6;60.11304944
;;;141;1;151;;;;90;4.6;right;;;;180;1;1.09949208;right;1;213;2019_Apr_03_1419;Flow_exo_pre;3.0.6;60.11304944
