Questions,Stair.thisTrialN,Stair.stepSize,Stair.intensity,Stair2.thisTrialN,Stair2.stepSize,Stair2.intensity,controlQ.thisRepN,controlQ.thisTrialN,controlQ.thisN,controlQ.thisIndex,Qs.thisRepN,Qs.thisTrialN,Qs.thisN,Qs.thisIndex,cueExoPos,targetXOri,targetXPos,CorrectAns,Stair.response,keyPress_2.rt,keyPress_2.rl,cueOri,Stair2.response,keyPress.rt,keyPress.rl,key_start.keys,key_start.rt,Quest_Ans.response,Quest_Ans.rt,Session,Participant,date,expName,psychopyVersion,frameRate,
,0,1,81,,,,,,,,,,,,-4.6,90,-4.6,left,1,0.438955674,left,,,,,,,,,3,62,2019_Apr_01_1608,Flow_exo_post,3.0.5,59.55368173,
,1,1,80,,,,,,,,,,,,4.6,90,-4.6,left,1,0.520139699,left,,,,,,,,,3,62,2019_Apr_01_1608,Flow_exo_post,3.0.5,59.55368173,
,2,1,79,,,,,,,,,,,,-4.6,90,-4.6,left,1,0.487045535,left,,,,,,,,,3,62,2019_Apr_01_1608,Flow_exo_post,3.0.5,59.55368173,
,3,1,78,,,,,,,,,,,,4.6,90,4.6,right,1,0.568092645,right,,,,,,,,,3,62,2019_Apr_01_1608,Flow_exo_post,3.0.5,59.55368173,
,4,1,77,,,,,,,,,,,,-4.6,0,-4.6,left,1,0.485662455,left,,,,,,,,,3,62,2019_Apr_01_1608,Flow_exo_post,3.0.5,59.55368173,
,5,1,76,,,,,,,,,,,,-4.6,0,-4.6,left,1,0.520769469,left,,,,,,,,,3,62,2019_Apr_01_1608,Flow_exo_post,3.0.5,59.55368173,
,6,1,75,,,,,,,,,,,,4.6,90,4.6,right,1,0.605328538,right,,,,,,,,,3,62,2019_Apr_01_1608,Flow_exo_post,3.0.5,59.55368173,
,7,1,74,,,,,,,,,,,,4.6,90,-4.6,left,1,0.502957135,left,,,,,,,,,3,62,2019_Apr_01_1608,Flow_exo_post,3.0.5,59.55368173,
,8,1,73,,,,,,,,,,,,4.6,0,4.6,right,1,0.532976866,right,,,,,,,,,3,62,2019_Apr_01_1608,Flow_exo_post,3.0.5,59.55368173,
,9,1,72,,,,,,,,,,,,-4.6,0,-4.6,left,1,0.534195446,left,,,,,,,,,3,62,2019_Apr_01_1608,Flow_exo_post,3.0.5,59.55368173,
,10,1,71,,,,,,,,,,,,4.6,0,4.6,right,1,0.502376802,right,,,,,,,,,3,62,2019_Apr_01_1608,Flow_exo_post,3.0.5,59.55368173,
,11,1,70,,,,,,,,,,,,-4.6,90,-4.6,left,1,0.532051018,left,,,,,,,,,3,62,2019_Apr_01_1608,Flow_exo_post,3.0.5,59.55368173,
,12,1,69,,,,,,,,,,,,-4.6,90,4.6,right,0,0.484682827,left,,,,,,,,,3,62,2019_Apr_01_1608,Flow_exo_post,3.0.5,59.55368173,
,13,1,70,,,,,,,,,,,,-4.6,0,4.6,right,0,0.432667947,left,,,,,,,,,3,62,2019_Apr_01_1608,Flow_exo_post,3.0.5,59.55368173,
,14,1,71,,,,,,,,,,,,4.6,90,-4.6,left,0,0.4372118,right,,,,,,,,,3,62,2019_Apr_01_1608,Flow_exo_post,3.0.5,59.55368173,
,15,1,72,,,,,,,,,,,,4.6,0,-4.6,left,1,0.522649445,left,,,,,,,,,3,62,2019_Apr_01_1608,Flow_exo_post,3.0.5,59.55368173,
,16,1,72,,,,,,,,,,,,4.6,90,-4.6,left,1,0.573002437,left,,,,,,,,,3,62,2019_Apr_01_1608,Flow_exo_post,3.0.5,59.55368173,
,17,1,72,,,,,,,,,,,,4.6,90,-4.6,left,0,0.836166712,right,,,,,,,,,3,62,2019_Apr_01_1608,Flow_exo_post,3.0.5,59.55368173,
,18,1,73,,,,,,,,,,,,-4.6,90,-4.6,left,1,0.402811273,left,,,,,,,,,3,62,2019_Apr_01_1608,Flow_exo_post,3.0.5,59.55368173,
,19,1,73,,,,,,,,,,,,4.6,90,4.6,right,0,0.5874698,left,,,,,,,,,3,62,2019_Apr_01_1608,Flow_exo_post,3.0.5,59.55368173,
,20,1,74,,,,,,,,,,,,4.6,0,4.6,right,1,0.455824471,right,,,,,,,,,3,62,2019_Apr_01_1608,Flow_exo_post,3.0.5,59.55368173,
,21,1,74,,,,,,,,,,,,4.6,0,-4.6,left,1,0.470157396,left,,,,,,,,,3,62,2019_Apr_01_1608,Flow_exo_post,3.0.5,59.55368173,
,22,1,74,,,,,,,,,,,,-4.6,0,4.6,right,0,0.475365059,left,,,,,,,,,3,62,2019_Apr_01_1608,Flow_exo_post,3.0.5,59.55368173,
,23,1,75,,,,,,,,,,,,-4.6,0,4.6,right,0,0.520720325,left,,,,,,,,,3,62,2019_Apr_01_1608,Flow_exo_post,3.0.5,59.55368173,
,24,1,76,,,,,,,,,,,,-4.6,0,-4.6,left,1,0.605808895,left,,,,,,,,,3,62,2019_Apr_01_1608,Flow_exo_post,3.0.5,59.55368173,
,25,1,76,,,,,,,,,,,,-4.6,0,4.6,right,1,0.605837617,right,,,,,,,,,3,62,2019_Apr_01_1608,Flow_exo_post,3.0.5,59.55368173,
,26,1,76,,,,,,,,,,,,-4.6,90,-4.6,left,1,0.453835388,left,,,,,,,,,3,62,2019_Apr_01_1608,Flow_exo_post,3.0.5,59.55368173,
,27,1,75,,,,,,,,,,,,-4.6,90,4.6,right,1,0.588418124,right,,,,,,,,,3,62,2019_Apr_01_1608,Flow_exo_post,3.0.5,59.55368173,
,28,1,75,,,,,,,,,,,,-4.6,0,-4.6,left,1,0.390321527,left,,,,,,,,,3,62,2019_Apr_01_1608,Flow_exo_post,3.0.5,59.55368173,
,29,1,75,,,,,,,,,,,,-4.6,90,-4.6,left,1,0.486757827,left,,,,,,,,,3,62,2019_Apr_01_1608,Flow_exo_post,3.0.5,59.55368173,
,30,1,74,,,,,,,,,,,,-4.6,90,-4.6,left,1,0.719463517,left,,,,,,,,,3,62,2019_Apr_01_1608,Flow_exo_post,3.0.5,59.55368173,
,31,1,74,,,,,,,,,,,,4.6,90,-4.6,left,0,0.422520982,right,,,,,,,,,3,62,2019_Apr_01_1608,Flow_exo_post,3.0.5,59.55368173,
,32,1,75,,,,,,,,,,,,-4.6,0,4.6,right,1,0.708368488,right,,,,,,,,,3,62,2019_Apr_01_1608,Flow_exo_post,3.0.5,59.55368173,
,33,1,75,,,,,,,,,,,,-4.6,0,4.6,right,1,0.615778359,right,,,,,,,,,3,62,2019_Apr_01_1608,Flow_exo_post,3.0.5,59.55368173,
,34,1,75,,,,,,,,,,,,4.6,0,-4.6,left,1,0.61729198,left,,,,,,,,,3,62,2019_Apr_01_1608,Flow_exo_post,3.0.5,59.55368173,
,35,1,74,,,,,,,,,,,,4.6,90,-4.6,left,0,0.448639985,right,,,,,,,,,3,62,2019_Apr_01_1608,Flow_exo_post,3.0.5,59.55368173,
,36,1,75,,,,,,,,,,,,-4.6,90,-4.6,left,1,0.467577657,left,,,,,,,,,3,62,2019_Apr_01_1608,Flow_exo_post,3.0.5,59.55368173,
,37,1,75,,,,,,,,,,,,4.6,0,-4.6,left,0,0.318508687,right,,,,,,,,,3,62,2019_Apr_01_1608,Flow_exo_post,3.0.5,59.55368173,
,38,1,76,,,,,,,,,,,,4.6,0,4.6,right,1,0.483534386,right,,,,,,,,,3,62,2019_Apr_01_1608,Flow_exo_post,3.0.5,59.55368173,
,39,1,76,,,,,,,,,,,,-4.6,90,-4.6,left,1,0.467695526,left,,,,,,,,,3,62,2019_Apr_01_1608,Flow_exo_post,3.0.5,59.55368173,
,40,1,76,,,,,,,,,,,,-4.6,90,4.6,right,1,0.50519462,right,,,,,,,,,3,62,2019_Apr_01_1608,Flow_exo_post,3.0.5,59.55368173,
,41,1,75,,,,,,,,,,,,4.6,0,4.6,right,1,0.487494815,right,,,,,,,,,3,62,2019_Apr_01_1608,Flow_exo_post,3.0.5,59.55368173,
,42,1,75,,,,,,,,,,,,4.6,90,-4.6,left,1,0.587519076,left,,,,,,,,,3,62,2019_Apr_01_1608,Flow_exo_post,3.0.5,59.55368173,
,43,1,75,,,,,,,,,,,,4.6,90,4.6,right,1,0.48782429,right,,,,,,,,,3,62,2019_Apr_01_1608,Flow_exo_post,3.0.5,59.55368173,
,44,1,74,,,,,,,,,,,,-4.6,0,4.6,right,1,0.486890772,right,,,,,,,,,3,62,2019_Apr_01_1608,Flow_exo_post,3.0.5,59.55368173,
,45,1,74,,,,,,,,,,,,4.6,90,4.6,right,1,0.521524306,right,,,,,,,,,3,62,2019_Apr_01_1608,Flow_exo_post,3.0.5,59.55368173,
,46,1,74,,,,,,,,,,,,-4.6,0,4.6,right,1,0.551522958,right,,,,,,,,,3,62,2019_Apr_01_1608,Flow_exo_post,3.0.5,59.55368173,
,47,1,73,,,,,,,,,,,,4.6,90,-4.6,left,0,0.960279778,right,,,,,,,,,3,62,2019_Apr_01_1608,Flow_exo_post,3.0.5,59.55368173,
,48,1,74,,,,,,,,,,,,-4.6,90,4.6,right,1,1.311476691,right,,,,,,,,,3,62,2019_Apr_01_1608,Flow_exo_post,3.0.5,59.55368173,
,49,1,74,,,,,,,,,,,,-4.6,0,4.6,right,1,0.587917511,right,,,,,,,,,3,62,2019_Apr_01_1608,Flow_exo_post,3.0.5,59.55368173,
,50,1,74,,,,,,,,,,,,-4.6,90,4.6,right,1,0.603318497,right,,,,,,,,,3,62,2019_Apr_01_1608,Flow_exo_post,3.0.5,59.55368173,
,51,1,73,,,,,,,,,,,,4.6,0,-4.6,left,0,1.87758975,right,,,,,,,,,3,62,2019_Apr_01_1608,Flow_exo_post,3.0.5,59.55368173,
,52,1,74,,,,,,,,,,,,4.6,90,4.6,right,1,0.52174891,right,,,,,,,,,3,62,2019_Apr_01_1608,Flow_exo_post,3.0.5,59.55368173,
,53,1,74,,,,,,,,,,,,4.6,90,4.6,right,1,0.492028486,right,,,,,,,,,3,62,2019_Apr_01_1608,Flow_exo_post,3.0.5,59.55368173,
,54,1,74,,,,,,,,,,,,-4.6,0,4.6,right,1,0.586673272,right,,,,,,,,,3,62,2019_Apr_01_1608,Flow_exo_post,3.0.5,59.55368173,
,55,1,73,,,,,,,,,,,,4.6,0,4.6,right,1,1.237659113,right,,,,,,,,,3,62,2019_Apr_01_1608,Flow_exo_post,3.0.5,59.55368173,
,56,1,73,,,,,,,,,,,,4.6,0,-4.6,left,0,1.101270126,right,,,,,,,,,3,62,2019_Apr_01_1608,Flow_exo_post,3.0.5,59.55368173,
,57,1,74,,,,,,,,,,,,-4.6,90,-4.6,left,1,0.234008735,left,,,,,,,,,3,62,2019_Apr_01_1608,Flow_exo_post,3.0.5,59.55368173,
,58,1,74,,,,,,,,,,,,4.6,0,-4.6,left,1,0.671493248,left,,,,,,,,,3,62,2019_Apr_01_1608,Flow_exo_post,3.0.5,59.55368173,
,59,1,74,,,,,,,,,,,,-4.6,0,-4.6,left,1,0.503461156,left,,,,,,,,,3,62,2019_Apr_01_1608,Flow_exo_post,3.0.5,59.55368173,
,60,1,73,,,,,,,,,,,,-4.6,0,-4.6,left,1,0.587611068,left,,,,,,,,,3,62,2019_Apr_01_1608,Flow_exo_post,3.0.5,59.55368173,
,61,1,73,,,,,,,,,,,,4.6,0,4.6,right,1,0.504731193,right,,,,,,,,,3,62,2019_Apr_01_1608,Flow_exo_post,3.0.5,59.55368173,
,62,1,73,,,,,,,,,,,,4.6,90,-4.6,left,1,0.635024647,left,,,,,,,,,3,62,2019_Apr_01_1608,Flow_exo_post,3.0.5,59.55368173,
,63,1,72,,,,,,,,,,,,4.6,90,4.6,right,1,0.539416081,right,,,,,,,,,3,62,2019_Apr_01_1608,Flow_exo_post,3.0.5,59.55368173,
,64,1,72,,,,,,,,,,,,-4.6,90,4.6,right,1,0.688220428,right,,,,,,,,,3,62,2019_Apr_01_1608,Flow_exo_post,3.0.5,59.55368173,
,65,1,72,,,,,,,,,,,,-4.6,0,4.6,right,0,0.485696294,left,,,,,,,,,3,62,2019_Apr_01_1608,Flow_exo_post,3.0.5,59.55368173,
,66,1,73,,,,,,,,,,,,4.6,0,-4.6,left,1,0.606691514,left,,,,,,,,,3,62,2019_Apr_01_1608,Flow_exo_post,3.0.5,59.55368173,
,67,1,73,,,,,,,,,,,,4.6,0,-4.6,left,0,0.388379165,right,,,,,,,,,3,62,2019_Apr_01_1608,Flow_exo_post,3.0.5,59.55368173,
,68,1,74,,,,,,,,,,,,4.6,90,4.6,right,1,0.437493595,right,,,,,,,,,3,62,2019_Apr_01_1608,Flow_exo_post,3.0.5,59.55368173,
,69,1,74,,,,,,,,,,,,-4.6,0,-4.6,left,1,0.503821068,left,,,,,,,,,3,62,2019_Apr_01_1608,Flow_exo_post,3.0.5,59.55368173,
,70,1,74,,,,,,,,,,,,-4.6,0,-4.6,left,1,0.49129132,left,,,,,,,,,3,62,2019_Apr_01_1608,Flow_exo_post,3.0.5,59.55368173,
,,,,0,1,81,,,,,,,,,,0,-4.6,left,,,,0,1,0.587968843,left,,,,,3,62,2019_Apr_01_1608,Flow_exo_post,3.0.5,59.55368173,
,,,,1,1,80,,,,,,,,,,0,4.6,right,,,,0,1,0.537727954,right,,,,,3,62,2019_Apr_01_1608,Flow_exo_post,3.0.5,59.55368173,
,,,,2,1,79,,,,,,,,,,90,4.6,right,,,,180,1,0.575807774,right,,,,,3,62,2019_Apr_01_1608,Flow_exo_post,3.0.5,59.55368173,
,,,,3,1,78,,,,,,,,,,0,4.6,right,,,,180,0,0.503676813,left,,,,,3,62,2019_Apr_01_1608,Flow_exo_post,3.0.5,59.55368173,
,,,,4,1,79,,,,,,,,,,0,4.6,right,,,,180,1,0.623116736,right,,,,,3,62,2019_Apr_01_1608,Flow_exo_post,3.0.5,59.55368173,
,,,,5,1,79,,,,,,,,,,0,-4.6,left,,,,0,1,0.523041861,left,,,,,3,62,2019_Apr_01_1608,Flow_exo_post,3.0.5,59.55368173,
,,,,6,1,79,,,,,,,,,,0,-4.6,left,,,,0,1,0.522764493,left,,,,,3,62,2019_Apr_01_1608,Flow_exo_post,3.0.5,59.55368173,
,,,,7,1,78,,,,,,,,,,90,4.6,right,,,,180,1,0.588170184,right,,,,,3,62,2019_Apr_01_1608,Flow_exo_post,3.0.5,59.55368173,
,,,,8,1,78,,,,,,,,,,90,4.6,right,,,,180,1,0.604767679,right,,,,,3,62,2019_Apr_01_1608,Flow_exo_post,3.0.5,59.55368173,
,,,,9,1,78,,,,,,,,,,0,-4.6,left,,,,180,1,0.619341697,left,,,,,3,62,2019_Apr_01_1608,Flow_exo_post,3.0.5,59.55368173,
,,,,10,1,77,,,,,,,,,,0,4.6,right,,,,0,1,0.606153639,right,,,,,3,62,2019_Apr_01_1608,Flow_exo_post,3.0.5,59.55368173,
,,,,11,1,77,,,,,,,,,,90,-4.6,left,,,,180,1,0.50221387,left,,,,,3,62,2019_Apr_01_1608,Flow_exo_post,3.0.5,59.55368173,
,,,,12,1,77,,,,,,,,,,0,4.6,right,,,,0,1,0.569176329,right,,,,,3,62,2019_Apr_01_1608,Flow_exo_post,3.0.5,59.55368173,
,,,,13,1,76,,,,,,,,,,90,-4.6,left,,,,0,1,0.603879396,left,,,,,3,62,2019_Apr_01_1608,Flow_exo_post,3.0.5,59.55368173,
,,,,14,1,76,,,,,,,,,,90,-4.6,left,,,,0,1,0.486597488,left,,,,,3,62,2019_Apr_01_1608,Flow_exo_post,3.0.5,59.55368173,
,,,,15,1,76,,,,,,,,,,0,4.6,right,,,,180,1,0.550336845,right,,,,,3,62,2019_Apr_01_1608,Flow_exo_post,3.0.5,59.55368173,
,,,,16,1,75,,,,,,,,,,90,4.6,right,,,,180,1,0.684287898,right,,,,,3,62,2019_Apr_01_1608,Flow_exo_post,3.0.5,59.55368173,
,,,,17,1,75,,,,,,,,,,90,4.6,right,,,,180,1,0.641135222,right,,,,,3,62,2019_Apr_01_1608,Flow_exo_post,3.0.5,59.55368173,
,,,,18,1,75,,,,,,,,,,90,-4.6,left,,,,0,1,0.558669676,left,,,,,3,62,2019_Apr_01_1608,Flow_exo_post,3.0.5,59.55368173,
,,,,19,1,74,,,,,,,,,,0,-4.6,left,,,,180,1,0.651188118,left,,,,,3,62,2019_Apr_01_1608,Flow_exo_post,3.0.5,59.55368173,
,,,,20,1,74,,,,,,,,,,0,-4.6,left,,,,180,1,0.55267881,left,,,,,3,62,2019_Apr_01_1608,Flow_exo_post,3.0.5,59.55368173,
,,,,21,1,74,,,,,,,,,,90,-4.6,left,,,,0,1,0.485730053,left,,,,,3,62,2019_Apr_01_1608,Flow_exo_post,3.0.5,59.55368173,
,,,,22,1,73,,,,,,,,,,90,4.6,right,,,,180,1,0.587555259,right,,,,,3,62,2019_Apr_01_1608,Flow_exo_post,3.0.5,59.55368173,
,,,,23,1,73,,,,,,,,,,90,4.6,right,,,,0,1,0.585987055,right,,,,,3,62,2019_Apr_01_1608,Flow_exo_post,3.0.5,59.55368173,
,,,,24,1,73,,,,,,,,,,90,-4.6,left,,,,180,1,0.557382564,left,,,,,3,62,2019_Apr_01_1608,Flow_exo_post,3.0.5,59.55368173,
,,,,25,1,72,,,,,,,,,,90,-4.6,left,,,,180,1,0.550818489,left,,,,,3,62,2019_Apr_01_1608,Flow_exo_post,3.0.5,59.55368173,
,,,,26,1,72,,,,,,,,,,0,4.6,right,,,,180,0,0.63735309,left,,,,,3,62,2019_Apr_01_1608,Flow_exo_post,3.0.5,59.55368173,
,,,,27,1,73,,,,,,,,,,90,-4.6,left,,,,180,1,0.555498927,left,,,,,3,62,2019_Apr_01_1608,Flow_exo_post,3.0.5,59.55368173,
,,,,28,1,73,,,,,,,,,,0,4.6,right,,,,0,1,1.019612867,right,,,,,3,62,2019_Apr_01_1608,Flow_exo_post,3.0.5,59.55368173,
,,,,29,1,73,,,,,,,,,,0,-4.6,left,,,,0,0,0.787925858,right,,,,,3,62,2019_Apr_01_1608,Flow_exo_post,3.0.5,59.55368173,
,,,,30,1,74,,,,,,,,,,0,-4.6,left,,,,0,1,0.67199757,left,,,,,3,62,2019_Apr_01_1608,Flow_exo_post,3.0.5,59.55368173,
,,,,31,1,74,,,,,,,,,,90,4.6,right,,,,0,1,0.521379762,right,,,,,3,62,2019_Apr_01_1608,Flow_exo_post,3.0.5,59.55368173,
,,,,32,1,74,,,,,,,,,,90,-4.6,left,,,,180,1,0.521575411,left,,,,,3,62,2019_Apr_01_1608,Flow_exo_post,3.0.5,59.55368173,
,,,,33,1,73,,,,,,,,,,90,4.6,right,,,,0,1,0.58653215,right,,,,,3,62,2019_Apr_01_1608,Flow_exo_post,3.0.5,59.55368173,
,,,,34,1,73,,,,,,,,,,0,4.6,right,,,,0,1,0.503780991,right,,,,,3,62,2019_Apr_01_1608,Flow_exo_post,3.0.5,59.55368173,
,,,,35,1,73,,,,,,,,,,0,-4.6,left,,,,0,1,0.474216076,left,,,,,3,62,2019_Apr_01_1608,Flow_exo_post,3.0.5,59.55368173,
,,,,36,1,72,,,,,,,,,,0,4.6,right,,,,180,1,0.605428905,right,,,,,3,62,2019_Apr_01_1608,Flow_exo_post,3.0.5,59.55368173,
,,,,37,1,72,,,,,,,,,,90,-4.6,left,,,,0,1,0.606448957,left,,,,,3,62,2019_Apr_01_1608,Flow_exo_post,3.0.5,59.55368173,
,,,,38,1,72,,,,,,,,,,0,-4.6,left,,,,180,1,0.448838976,left,,,,,3,62,2019_Apr_01_1608,Flow_exo_post,3.0.5,59.55368173,
,,,,39,1,71,,,,,,,,,,0,-4.6,left,,,,0,0,0.539773211,right,,,,,3,62,2019_Apr_01_1608,Flow_exo_post,3.0.5,59.55368173,
,,,,40,1,72,,,,,,,,,,0,4.6,right,,,,180,1,0.773653039,right,,,,,3,62,2019_Apr_01_1608,Flow_exo_post,3.0.5,59.55368173,
,,,,41,1,72,,,,,,,,,,90,4.6,right,,,,180,0,0.533929897,left,,,,,3,62,2019_Apr_01_1608,Flow_exo_post,3.0.5,59.55368173,
,,,,42,1,73,,,,,,,,,,90,4.6,right,,,,180,1,0.642177495,right,,,,,3,62,2019_Apr_01_1608,Flow_exo_post,3.0.5,59.55368173,
,,,,43,1,73,,,,,,,,,,90,4.6,right,,,,180,0,0.420190402,left,,,,,3,62,2019_Apr_01_1608,Flow_exo_post,3.0.5,59.55368173,
,,,,44,1,74,,,,,,,,,,90,4.6,right,,,,180,0,0.555470453,left,,,,,3,62,2019_Apr_01_1608,Flow_exo_post,3.0.5,59.55368173,
,,,,45,1,75,,,,,,,,,,90,-4.6,left,,,,0,0,0.640546498,right,,,,,3,62,2019_Apr_01_1608,Flow_exo_post,3.0.5,59.55368173,
,,,,46,1,76,,,,,,,,,,90,4.6,right,,,,180,1,0.671934166,right,,,,,3,62,2019_Apr_01_1608,Flow_exo_post,3.0.5,59.55368173,
,,,,47,1,76,,,,,,,,,,0,4.6,right,,,,180,0,0.474143332,left,,,,,3,62,2019_Apr_01_1608,Flow_exo_post,3.0.5,59.55368173,
,,,,48,1,77,,,,,,,,,,90,-4.6,left,,,,180,1,0.473901123,left,,,,,3,62,2019_Apr_01_1608,Flow_exo_post,3.0.5,59.55368173,
,,,,49,1,77,,,,,,,,,,0,-4.6,left,,,,0,0,0.335049098,right,,,,,3,62,2019_Apr_01_1608,Flow_exo_post,3.0.5,59.55368173,
,,,,50,1,78,,,,,,,,,,90,-4.6,left,,,,180,1,0.726375381,left,,,,,3,62,2019_Apr_01_1608,Flow_exo_post,3.0.5,59.55368173,
,,,,51,1,78,,,,,,,,,,90,-4.6,left,,,,180,1,0.63648754,left,,,,,3,62,2019_Apr_01_1608,Flow_exo_post,3.0.5,59.55368173,
,,,,52,1,78,,,,,,,,,,90,-4.6,left,,,,180,1,0.550535038,left,,,,,3,62,2019_Apr_01_1608,Flow_exo_post,3.0.5,59.55368173,
,,,,53,1,77,,,,,,,,,,90,4.6,right,,,,0,1,0.569601599,right,,,,,3,62,2019_Apr_01_1608,Flow_exo_post,3.0.5,59.55368173,
,,,,54,1,77,,,,,,,,,,90,-4.6,left,,,,180,1,0.586122218,left,,,,,3,62,2019_Apr_01_1608,Flow_exo_post,3.0.5,59.55368173,
,,,,55,1,77,,,,,,,,,,0,-4.6,left,,,,0,1,0.558206574,left,,,,,3,62,2019_Apr_01_1608,Flow_exo_post,3.0.5,59.55368173,
,,,,56,1,76,,,,,,,,,,90,-4.6,left,,,,0,1,0.554363822,left,,,,,3,62,2019_Apr_01_1608,Flow_exo_post,3.0.5,59.55368173,
,,,,57,1,76,,,,,,,,,,90,-4.6,left,,,,180,1,0.521606599,left,,,,,3,62,2019_Apr_01_1608,Flow_exo_post,3.0.5,59.55368173,
,,,,58,1,76,,,,,,,,,,90,-4.6,left,,,,180,1,0.548927541,left,,,,,3,62,2019_Apr_01_1608,Flow_exo_post,3.0.5,59.55368173,
,,,,59,1,75,,,,,,,,,,0,-4.6,left,,,,180,1,0.753345447,left,,,,,3,62,2019_Apr_01_1608,Flow_exo_post,3.0.5,59.55368173,
,,,,60,1,75,,,,,,,,,,0,4.6,right,,,,0,1,0.654525666,right,,,,,3,62,2019_Apr_01_1608,Flow_exo_post,3.0.5,59.55368173,
,,,,61,1,75,,,,,,,,,,0,-4.6,left,,,,0,1,0.588438949,left,,,,,3,62,2019_Apr_01_1608,Flow_exo_post,3.0.5,59.55368173,
,,,,62,1,74,,,,,,,,,,90,4.6,right,,,,180,1,0.735453386,right,,,,,3,62,2019_Apr_01_1608,Flow_exo_post,3.0.5,59.55368173,
,,,,63,1,74,,,,,,,,,,0,4.6,right,,,,180,1,0.689213752,right,,,,,3,62,2019_Apr_01_1608,Flow_exo_post,3.0.5,59.55368173,
,,,,64,1,74,,,,,,,,,,0,4.6,right,,,,0,1,0.62261771,right,,,,,3,62,2019_Apr_01_1608,Flow_exo_post,3.0.5,59.55368173,
,,,,65,1,73,,,,,,,,,,0,4.6,right,,,,180,1,0.586717781,right,,,,,3,62,2019_Apr_01_1608,Flow_exo_post,3.0.5,59.55368173,
,,,,66,1,73,,,,,,,,,,90,-4.6,left,,,,180,1,0.635453932,left,,,,,3,62,2019_Apr_01_1608,Flow_exo_post,3.0.5,59.55368173,
,,,,67,1,73,,,,,,,,,,90,-4.6,left,,,,180,1,0.558798348,left,,,,,3,62,2019_Apr_01_1608,Flow_exo_post,3.0.5,59.55368173,
,,,,68,1,72,,,,,,,,,,90,-4.6,left,,,,0,1,0.567301147,left,,,,,3,62,2019_Apr_01_1608,Flow_exo_post,3.0.5,59.55368173,
,,,,69,1,72,,,,,,,,,,0,-4.6,left,,,,0,1,0.688249147,left,,,,,3,62,2019_Apr_01_1608,Flow_exo_post,3.0.5,59.55368173,
,,,,70,1,72,,,,,,,,,,0,4.6,right,,,,0,0,0.73520424,left,,,,,3,62,2019_Apr_01_1608,Flow_exo_post,3.0.5,59.55368173,
,,,,71,1,73,,,,,,,,,,90,4.6,right,,,,0,1,0.586807985,right,,,,,3,62,2019_Apr_01_1608,Flow_exo_post,3.0.5,59.55368173,
,,,,72,1,73,,,,,,,,,,90,-4.6,left,,,,0,0,0.789828774,right,,,,,3,62,2019_Apr_01_1608,Flow_exo_post,3.0.5,59.55368173,
,,,,73,1,74,,,,,,,,,,90,-4.6,left,,,,180,1,0.538755834,left,,,,,3,62,2019_Apr_01_1608,Flow_exo_post,3.0.5,59.55368173,
,,,,74,1,74,,,,,,,,,,0,-4.6,left,,,,0,1,0.55564042,left,,,,,3,62,2019_Apr_01_1608,Flow_exo_post,3.0.5,59.55368173,
,,,,75,1,74,,,,,,,,,,0,-4.6,left,,,,180,1,0.522171791,left,,,,,3,62,2019_Apr_01_1608,Flow_exo_post,3.0.5,59.55368173,
,,,,76,1,73,,,,,,,,,,0,-4.6,left,,,,0,1,0.641995678,left,,,,,3,62,2019_Apr_01_1608,Flow_exo_post,3.0.5,59.55368173,
,,,,77,1,73,,,,,,,,,,0,4.6,right,,,,0,1,0.533753592,right,,,,,3,62,2019_Apr_01_1608,Flow_exo_post,3.0.5,59.55368173,
,,,,78,1,73,,,,,,,,,,0,4.6,right,,,,0,1,0.588726605,right,,,,,3,62,2019_Apr_01_1608,Flow_exo_post,3.0.5,59.55368173,
,,,,79,1,72,,,,,,,,,,90,-4.6,left,,,,180,1,0.469909235,left,,,,,3,62,2019_Apr_01_1608,Flow_exo_post,3.0.5,59.55368173,
,,,,80,1,72,,,,,,,,,,0,-4.6,left,,,,0,0,0.585458859,right,,,,,3,62,2019_Apr_01_1608,Flow_exo_post,3.0.5,59.55368173,
,,,,81,1,73,,,,,,,,,,90,4.6,right,,,,0,1,0.383878396,right,,,,,3,62,2019_Apr_01_1608,Flow_exo_post,3.0.5,59.55368173,
,,,,82,1,73,,,,,,,,,,90,4.6,right,,,,0,1,0.336824822,right,,,,,3,62,2019_Apr_01_1608,Flow_exo_post,3.0.5,59.55368173,
,,,,83,1,73,,,,,,,,,,0,-4.6,left,,,,0,1,0.604159938,left,,,,,3,62,2019_Apr_01_1608,Flow_exo_post,3.0.5,59.55368173,
,,,,84,1,72,,,,,,,,,,90,-4.6,left,,,,180,1,0.605345273,left,,,,,3,62,2019_Apr_01_1608,Flow_exo_post,3.0.5,59.55368173,
,,,,85,1,72,,,,,,,,,,90,4.6,right,,,,0,1,0.520936795,right,,,,,3,62,2019_Apr_01_1608,Flow_exo_post,3.0.5,59.55368173,
,,,,86,1,72,,,,,,,,,,0,-4.6,left,,,,180,1,0.520960668,left,,,,,3,62,2019_Apr_01_1608,Flow_exo_post,3.0.5,59.55368173,
,,,,87,1,71,,,,,,,,,,0,-4.6,left,,,,0,1,0.554103714,left,,,,,3,62,2019_Apr_01_1608,Flow_exo_post,3.0.5,59.55368173,
,,,,88,1,71,,,,,,,,,,0,4.6,right,,,,0,1,0.652974342,right,,,,,3,62,2019_Apr_01_1608,Flow_exo_post,3.0.5,59.55368173,
,,,,89,1,71,,,,,,,,,,90,4.6,right,,,,0,1,0.437844847,right,,,,,3,62,2019_Apr_01_1608,Flow_exo_post,3.0.5,59.55368173,
,,,,90,1,70,,,,,,,,,,90,4.6,right,,,,0,1,0.421060302,right,,,,,3,62,2019_Apr_01_1608,Flow_exo_post,3.0.5,59.55368173,
,,,,91,1,70,,,,,,,,,,0,-4.6,left,,,,0,0,0.420834367,right,,,,,3,62,2019_Apr_01_1608,Flow_exo_post,3.0.5,59.55368173,
,,,,92,1,71,,,,,,,,,,90,4.6,right,,,,0,1,0.541459465,right,,,,,3,62,2019_Apr_01_1608,Flow_exo_post,3.0.5,59.55368173,
,,,,93,1,71,,,,,,,,,,90,4.6,right,,,,0,1,0.532300885,right,,,,,3,62,2019_Apr_01_1608,Flow_exo_post,3.0.5,59.55368173,
,,,,94,1,71,,,,,,,,,,90,-4.6,left,,,,0,1,0.599576164,left,,,,,3,62,2019_Apr_01_1608,Flow_exo_post,3.0.5,59.55368173,
,,,,95,1,70,,,,,,,,,,90,4.6,right,,,,0,1,0.552742537,right,,,,,3,62,2019_Apr_01_1608,Flow_exo_post,3.0.5,59.55368173,
,,,,96,1,70,,,,,,,,,,90,-4.6,left,,,,180,1,0.408452786,left,,,,,3,62,2019_Apr_01_1608,Flow_exo_post,3.0.5,59.55368173,
,,,,97,1,70,,,,,,,,,,0,4.6,right,,,,0,1,0.52303747,right,,,,,3,62,2019_Apr_01_1608,Flow_exo_post,3.0.5,59.55368173,
,,,,98,1,69,,,,,,,,,,90,4.6,right,,,,180,0,0.504376302,left,,,,,3,62,2019_Apr_01_1608,Flow_exo_post,3.0.5,59.55368173,
,,,,99,1,70,,,,,,,,,,90,-4.6,left,,,,180,1,0.390060952,left,,,,,3,62,2019_Apr_01_1608,Flow_exo_post,3.0.5,59.55368173,
,,,,100,1,70,,,,,,,,,,0,4.6,right,,,,180,1,0.570336493,right,,,,,3,62,2019_Apr_01_1608,Flow_exo_post,3.0.5,59.55368173,
,,,,101,1,70,,,,,,,,,,90,-4.6,left,,,,0,0,0.584996454,right,,,,,3,62,2019_Apr_01_1608,Flow_exo_post,3.0.5,59.55368173,
,,,,102,1,71,,,,,,,,,,0,4.6,right,,,,180,1,1.071968581,right,,,,,3,62,2019_Apr_01_1608,Flow_exo_post,3.0.5,59.55368173,
,,,,103,1,71,,,,,,,,,,0,4.6,right,,,,0,1,0.542598915,right,,,,,3,62,2019_Apr_01_1608,Flow_exo_post,3.0.5,59.55368173,
,,,,104,1,71,,,,,,,,,,90,-4.6,left,,,,0,1,0.557784908,left,,,,,3,62,2019_Apr_01_1608,Flow_exo_post,3.0.5,59.55368173,
,,,,,,,,,,,,,,,,,,,,,,,,,,space,1.60321002,,,3,62,2019_Apr_01_1608,Flow_exo_post,3.0.5,59.55368173,
My state (body feelings, emotions and thoughts) during the task on the computer was similar to the state I had during my sport performance.,,,,,,,0,0,0,0,,,,,,,,,,,,,,,,,,3,4.439,3,62,2019_Apr_01_1608,Flow_exo_post,3.0.5,59.55368173
I did things spontaneously without having to think.,,,,,,,,,,,0,0,0,22,,,,,,,,,,,,,,1,4.143,3,62,2019_Apr_01_1608,Flow_exo_post,3.0.5,59.55368173,
Sometimes time seemed to speeds up.,,,,,,,,,,,0,1,1,21,,,,,,,,,,,,,,5,3.011,3,62,2019_Apr_01_1608,Flow_exo_post,3.0.5,59.55368173,
I lost my normal awareness of time.,,,,,,,,,,,0,2,2,20,,,,,,,,,,,,,,5,1.63,3,62,2019_Apr_01_1608,Flow_exo_post,3.0.5,59.55368173,
I had a strong sense of what I wanted to accomplish.,,,,,,,,,,,0,3,3,0,,,,,,,,,,,,,,5,1.777,3,62,2019_Apr_01_1608,Flow_exo_post,3.0.5,59.55368173,
The challenge and my skills were at an equally high level.,,,,,,,,,,,0,4,4,10,,,,,,,,,,,,,,5,1.505,3,62,2019_Apr_01_1608,Flow_exo_post,3.0.5,59.55368173,
Time seemed to alter (either slows down or speeds up).,,,,,,,,,,,0,5,5,23,,,,,,,,,,,,,,5,1.851,3,62,2019_Apr_01_1608,Flow_exo_post,3.0.5,59.55368173,
I was not worried about what others might be thinking of me.,,,,,,,,,,,0,6,6,16,,,,,,,,,,,,,,5,1.626,3,62,2019_Apr_01_1608,Flow_exo_post,3.0.5,59.55368173,
I really enjoyed the experience.,,,,,,,,,,,0,7,7,17,,,,,,,,,,,,,,5,3.034,3,62,2019_Apr_01_1608,Flow_exo_post,3.0.5,59.55368173,
I was not concerned with how others might be evaluating me.,,,,,,,,,,,0,8,8,14,,,,,,,,,,,,,,5,1.961,3,62,2019_Apr_01_1608,Flow_exo_post,3.0.5,59.55368173,
I had no difficulty concentrating.,,,,,,,,,,,0,9,9,6,,,,,,,,,,,,,,5,4.991,3,62,2019_Apr_01_1608,Flow_exo_post,3.0.5,59.55368173,
My goals were clearly defined. ,,,,,,,,,,,0,10,10,2,,,,,,,,,,,,,,5,1.409,3,62,2019_Apr_01_1608,Flow_exo_post,3.0.5,59.55368173,
I knew what I want to achieve.,,,,,,,,,,,0,11,11,1,,,,,,,,,,,,,,5,1.63,3,62,2019_Apr_01_1608,Flow_exo_post,3.0.5,59.55368173,
The way time passed seemed to be different from normal.,,,,,,,,,,,0,12,12,24,,,,,,,,,,,,,,5,1.83,3,62,2019_Apr_01_1608,Flow_exo_post,3.0.5,59.55368173,
I felt as though I had everything under control.,,,,,,,,,,,0,13,13,12,,,,,,,,,,,,,,5,1.125,3,62,2019_Apr_01_1608,Flow_exo_post,3.0.5,59.55368173,
It was really clear to me how my performance was going.,,,,,,,,,,,0,14,14,7,,,,,,,,,,,,,,5,1.51,3,62,2019_Apr_01_1608,Flow_exo_post,3.0.5,59.55368173,
I felt just the right amount of challenge. ,,,,,,,,,,,0,15,15,11,,,,,,,,,,,,,,5,1.53,3,62,2019_Apr_01_1608,Flow_exo_post,3.0.5,59.55368173,
The experience was extremely rewarding.,,,,,,,,,,,0,16,16,19,,,,,,,,,,,,,,5,1.109,3,62,2019_Apr_01_1608,Flow_exo_post,3.0.5,59.55368173,
The experience left me feeling great.,,,,,,,,,,,0,17,17,18,,,,,,,,,,,,,,5,1.244,3,62,2019_Apr_01_1608,Flow_exo_post,3.0.5,59.55368173,
My attention was focused entirely on what I was doing.,,,,,,,,,,,0,18,18,3,,,,,,,,,,,,,,5,1.157,3,62,2019_Apr_01_1608,Flow_exo_post,3.0.5,59.55368173,
I performed automatically without having to think about it.,,,,,,,,,,,0,19,19,25,,,,,,,,,,,,,,3,3.717,3,62,2019_Apr_01_1608,Flow_exo_post,3.0.5,59.55368173,
I had total concentration.,,,,,,,,,,,0,20,20,5,,,,,,,,,,,,,,5,1.798,3,62,2019_Apr_01_1608,Flow_exo_post,3.0.5,59.55368173,
I felt that I had everything under control.,,,,,,,,,,,0,21,21,13,,,,,,,,,,,,,,4,2.111,3,62,2019_Apr_01_1608,Flow_exo_post,3.0.5,59.55368173,
I was not concerned with how I was presenting myself.,,,,,,,,,,,0,22,22,15,,,,,,,,,,,,,,5,1.377,3,62,2019_Apr_01_1608,Flow_exo_post,3.0.5,59.55368173,
I had a good idea while I was performing about how well I was doing.,,,,,,,,,,,0,23,23,8,,,,,,,,,,,,,,5,2.109,3,62,2019_Apr_01_1608,Flow_exo_post,3.0.5,59.55368173,
I was challenged, but I believe my skills will allow me to meet that challenge.,,,,,,,,,,,0,24,24,9,,,,,,,,,,,,,,5,1.283,3,62,2019_Apr_01_1608,Flow_exo_post,3.0.5,59.55368173
It was no effort to keep my mind on what was happening.,,,,,,,,,,,0,25,25,4,,,,,,,,,,,,,,5,1.573,3,62,2019_Apr_01_1608,Flow_exo_post,3.0.5,59.55368173,
